AppTimestamp(s),SensorTimestamp(s),Acc_X,Acc_Y,Acc_Z,Label,Latitude,Longitude
0.076,2732350.431,-0.01645,-0.30568,9.29313,6,3,0.6
0.077,2732350.45,-0.05952,-0.28175,9.03919,6,3,0.6
0.077,2732350.469,-0.06191,-0.29133,9.21416,6,3,0.6
0.078,2732350.488,-0.04756,-0.35354,10.20748,6,3,0.6
0.092,2732350.507,-0.03799,-0.39422,10.17877,6,3,0.6
0.126,2732350.526,-0.02363,-0.42054,10.35853,6,3,0.6
0.126,2732350.545,-0.00688,-0.41097,10.15005,6,3,0.6
0.143,2732350.564,-0.01406,-0.3679,9.81745,6,3,0.6
0.159,2732350.583,-0.04756,-0.31047,9.67119,6,3,0.6
0.181,2732350.602,-0.05234,-0.28654,9.59462,6,3,0.6
0.199,2732350.621,-0.03799,-0.32961,9.70977,6,3,0.6
0.218,2732350.64,-0.00688,-0.36311,9.86531,6,3,0.6
0.236,2732350.66,0.00748,-0.38225,10.08306,6,3,0.6
0.254,2732350.679,-0.01645,-0.36072,10.13091,6,3,0.6
0.276,2732350.698,-0.0332,-0.32961,10.01606,6,3,0.6
0.294,2732350.717,-0.05952,-0.30568,9.73849,6,3,0.6
0.313,2732350.736,-0.07388,-0.32243,9.64487,6,3,0.6
0.333,2732350.755,-0.06431,-0.34636,9.67598,6,3,0.6
0.352,2732350.774,-0.04995,-0.3679,9.79831,6,3,0.6
0.371,2732350.793,-0.02841,-0.37268,9.8677,6,3,0.6
0.389,2732350.812,-0.04038,-0.38225,9.9682,6,3,0.6
0.409,2732350.831,-0.01884,-0.38225,10.00409,6,3,0.6
0.427,2732350.85,-0.02363,-0.37507,10.04238,6,3,0.6
0.446,2732350.869,-0.02363,-0.38704,9.98016,6,3,0.6
0.464,2732350.888,-0.02363,-0.37507,9.92991,6,3,0.6
0.483,2732350.907,-0.02602,-0.37747,9.83899,6,3,0.6
0.504,2732350.926,-0.02602,-0.37029,9.77677,6,3,0.6
0.522,2732350.945,-0.03081,-0.35833,9.77677,6,3,0.6
0.541,2732350.964,-0.03799,-0.3655,9.79592,6,3,0.6
0.561,2732350.983,-0.05474,-0.36072,9.86052,6,3,0.6
0.579,2732351.002,-0.07149,-0.37507,9.92513,6,3,0.6
0.599,2732351.021,-0.06909,-0.42293,9.95384,6,3,0.6
0.617,2732351.04,-0.04277,-0.42293,9.97299,6,3,0.6
0.637,2732351.059,-0.01645,-0.39661,9.92513,6,3,0.6
0.655,2732351.078,-0.01167,-0.3655,9.89402,6,3,0.6
0.674,2732351.097,-0.04516,-0.35593,9.8342,6,3,0.6
0.695,2732351.116,-0.04277,-0.35833,9.81506,6,3,0.6
0.712,2732351.135,-0.0332,-0.37986,9.81745,6,3,0.6
0.732,2732351.154,-0.03559,-0.38704,9.85813,6,3,0.6
0.752,2732351.173,-0.03559,-0.40379,9.89402,6,3,0.6
0.769,2732351.192,-0.04756,-0.40379,9.92274,6,3,0.6
0.788,2732351.211,-0.06191,-0.37986,9.92991,6,3,0.6
0.807,2732351.23,-0.06431,-0.38943,9.91556,6,3,0.6
0.828,2732351.249,-0.05713,-0.4014,9.89402,6,3,0.6
0.845,2732351.268,-0.05952,-0.40379,9.85334,6,3,0.6
0.864,2732351.287,-0.02602,-0.4014,9.84856,6,3,0.6
0.882,2732351.306,0.00269,-0.37268,9.84617,6,3,0.6
0.904,2732351.325,-0.01884,-0.34158,9.84856,6,3,0.6
0.921,2732351.344,-0.01884,-0.35593,9.87009,6,3,0.6
0.942,2732351.363,-0.01884,-0.36072,9.88684,6,3,0.6
0.961,2732351.382,-0.0332,-0.39661,9.90599,6,3,0.6
0.98,2732351.401,-0.04277,-0.42532,9.90359,6,3,0.6
1.003,2732351.42,-0.04038,-0.42532,9.89881,6,3,0.6
1.021,2732351.439,-0.05474,-0.41097,9.87967,6,3,0.6
1.038,2732351.458,-0.04995,-0.37268,9.88684,6,3,0.6
1.054,2732351.477,-0.01884,-0.37986,9.8677,6,3,0.6
1.077,2732351.496,-0.00449,-0.38465,9.87249,6,3,0.6
1.093,2732351.515,0.01226,-0.38704,9.86292,6,3,0.6
1.113,2732351.534,0.01705,-0.38225,9.88924,6,3,0.6
1.132,2732351.553,0.01466,-0.37986,9.87727,6,3,0.6
1.151,2732351.573,0.00269,-0.38943,9.89642,6,3,0.6
1.17,2732351.592,-0.02363,-0.38465,9.87009,6,3,0.6
1.187,2732351.611,-0.01884,-0.39661,9.89402,6,3,0.6
1.207,2732351.63,-0.04516,-0.39661,9.87727,6,3,0.6
1.226,2732351.649,-0.03559,-0.39422,9.87249,6,3,0.6
1.245,2732351.668,-0.03559,-0.39422,9.87009,6,3,0.6
1.263,2732351.687,-0.02602,-0.39422,9.87488,6,3,0.6
1.282,2732351.706,-0.01884,-0.38225,9.88206,6,3,0.6
1.302,2732351.725,-0.01645,-0.37268,9.87249,6,3,0.6
1.324,2732351.744,-0.01406,-0.38943,9.88684,6,3,0.6
1.341,2732351.763,-0.02363,-0.38704,9.87967,6,3,0.6
1.359,2732351.782,-0.01645,-0.38943,9.87727,6,3,0.6
1.379,2732351.801,-0.02602,-0.40379,9.87488,6,3,0.6
1.398,2732351.82,-0.02602,-0.38943,9.86531,6,3,0.6
1.417,2732351.839,-0.03081,-0.39422,9.87967,6,3,0.6
1.436,2732351.858,-0.03081,-0.399,9.87249,6,3,0.6
1.453,2732351.877,-0.01884,-0.39182,9.88206,6,3,0.6
1.473,2732351.896,-0.01406,-0.38943,9.88206,6,3,0.6
1.492,2732351.915,-0.02602,-0.39182,9.87967,6,3,0.6
1.518,2732351.934,-0.02124,-0.38943,9.88206,6,3,0.6
1.53,2732351.953,-0.02841,-0.37507,9.88206,6,3,0.6
1.551,2732351.972,-0.02124,-0.38465,9.88924,6,3,0.6
1.569,2732351.991,-0.02124,-0.4014,9.87249,6,3,0.6
1.588,2732352.01,-0.02363,-0.4014,9.87967,6,3,0.6
1.607,2732352.029,-0.01406,-0.39661,9.87009,6,3,0.6
1.626,2732352.048,-0.02124,-0.38225,9.87967,6,3,0.6
1.645,2732352.067,-0.01645,-0.4014,9.87967,6,3,0.6
1.663,2732352.086,-0.01406,-0.38704,9.87727,6,3,0.6
1.682,2732352.105,-0.00927,-0.38225,9.88206,6,3,0.6
1.702,2732352.124,-0.02363,-0.38943,9.88684,6,3,0.6
1.722,2732352.143,-0.01645,-0.40618,9.87727,6,3,0.6
1.74,2732352.162,-0.02124,-0.38465,9.88206,6,3,0.6
1.757,2732352.181,-0.02602,-0.39182,9.88206,6,3,0.6
1.778,2732352.2,-0.02602,-0.38225,9.88445,6,3,0.6
1.797,2732352.219,-0.02602,-0.38943,9.87727,6,3,0.6
1.816,2732352.238,-0.02602,-0.38704,9.87727,6,3,0.6
1.84,2732352.257,-0.01884,-0.39182,9.87488,6,3,0.6
1.853,2732352.276,-0.02602,-0.40379,9.88684,6,3,0.6
1.872,2732352.295,-0.03081,-0.39422,9.8677,6,3,0.6
1.896,2732352.314,-0.02124,-0.40857,9.88206,6,3,0.6
1.911,2732352.333,-0.0332,-0.37986,9.87727,6,3,0.6
1.93,2732352.352,-0.02841,-0.38465,9.87488,6,3,0.6
1.949,2732352.371,-0.02602,-0.4014,9.87727,6,3,0.6
1.968,2732352.39,-0.01884,-0.39422,9.88445,6,3,0.6
1.986,2732352.409,-0.00927,-0.39661,9.88206,6,3,0.6
2.005,2732352.428,-0.01406,-0.39182,9.87967,6,3,0.6
2.025,2732352.447,-0.02124,-0.40857,9.87488,6,3,0.6
2.048,2732352.467,-0.02841,-0.40379,9.87249,6,3,0.6
2.099,2732352.486,-0.03081,-0.39661,9.87967,6,3,0.6
2.101,2732352.505,-0.02363,-0.399,9.87249,6,3,0.6
2.101,2732352.524,-0.02841,-0.399,9.87727,6,3,0.6
2.121,2732352.543,-0.02124,-0.39182,9.87488,6,3,0.6
2.139,2732352.562,-0.02124,-0.40379,9.87249,6,3,0.6
2.156,2732352.581,-0.02602,-0.399,9.87967,6,3,0.6
2.176,2732352.6,-0.02841,-0.39422,9.87967,6,3,0.6
2.196,2732352.619,-0.01884,-0.39422,9.87727,6,3,0.6
2.215,2732352.638,-0.01884,-0.39422,9.88684,6,3,0.6
2.235,2732352.657,-0.01406,-0.38704,9.86531,6,3,0.6
2.252,2732352.676,-0.02363,-0.37986,9.88445,6,3,0.6
2.271,2732352.695,-0.01406,-0.40618,9.87967,6,3,0.6
2.291,2732352.714,-0.02124,-0.40857,9.8677,6,3,0.6
2.31,2732352.733,-0.02363,-0.39661,9.89402,6,3,0.6
2.329,2732352.752,-0.02602,-0.40379,9.86531,6,3,0.6
2.348,2732352.771,-0.02124,-0.40857,9.88206,6,3,0.6
2.366,2732352.79,-0.02363,-0.40618,9.87967,6,3,0.6
2.385,2732352.809,-0.0332,-0.41097,9.87727,6,3,0.6
2.406,2732352.828,-0.01645,-0.4014,9.87727,6,3,0.6
2.424,2732352.847,-0.01884,-0.38704,9.87249,6,3,0.6
2.443,2732352.866,-0.01406,-0.38704,9.88445,6,3,0.6
2.462,2732352.885,-0.01406,-0.399,9.87727,6,3,0.6
2.48,2732352.904,-0.01884,-0.39422,9.88445,6,3,0.6
2.501,2732352.923,-0.01645,-0.38943,9.87727,6,3,0.6
2.522,2732352.942,-0.01406,-0.4014,9.87727,6,3,0.6
2.539,2732352.961,-0.01406,-0.399,9.88445,6,3,0.6
2.556,2732352.98,-0.02124,-0.39661,9.87727,6,3,0.6
2.577,2732352.999,-0.02363,-0.4014,9.88445,6,3,0.6
2.598,2732353.018,-0.02124,-0.39661,9.87009,6,3,0.6
2.617,2732353.037,-0.01645,-0.39422,9.87967,6,3,0.6
2.635,2732353.056,-0.01884,-0.40379,9.87488,6,3,0.6
2.653,2732353.075,-0.02841,-0.4014,9.87727,6,3,0.6
2.671,2732353.094,-0.01884,-0.39661,9.89163,6,3,0.6
2.691,2732353.113,-0.02363,-0.40857,9.87727,6,3,0.6
2.709,2732353.132,-0.02363,-0.39661,9.88206,6,3,0.6
2.731,2732353.151,-0.01884,-0.39422,9.87488,6,3,0.6
2.748,2732353.17,-0.01884,-0.39422,9.87967,6,3,0.6
2.77,2732353.189,-0.02841,-0.38943,9.87249,6,3,0.6
2.784,2732353.208,-0.03559,-0.39422,9.88206,6,3,0.6
2.804,2732353.227,-0.01406,-0.4014,9.88445,6,3,0.6
2.824,2732353.246,-0.01645,-0.39182,9.87249,6,3,0.6
2.844,2732353.265,-0.03081,-0.40857,9.88445,6,3,0.6
2.862,2732353.284,-0.02602,-0.399,9.87488,6,3,0.6
2.883,2732353.303,-0.01884,-0.39422,9.88924,6,3,0.6
2.903,2732353.322,-0.02363,-0.39182,9.87727,6,3,0.6
2.921,2732353.341,-0.0332,-0.399,9.8677,6,3,0.6
2.939,2732353.361,-0.01167,-0.399,9.88684,6,3,0.6
2.955,2732353.38,-0.02363,-0.38465,9.87488,6,3,0.6
2.979,2732353.399,-0.02124,-0.38704,9.87488,6,3,0.6
2.997,2732353.418,-0.02363,-0.40379,9.87488,6,3,0.6
3.016,2732353.437,-0.01884,-0.39182,9.87249,6,3,0.6
3.036,2732353.456,-0.02124,-0.40618,9.87249,6,3,0.6
3.055,2732353.475,-0.02602,-0.39661,9.87009,6,3,0.6
3.071,2732353.494,-0.00927,-0.39661,9.87249,6,3,0.6
3.09,2732353.513,-0.02124,-0.39422,9.87967,6,3,0.6
3.11,2732353.532,-0.01884,-0.39182,9.88445,6,3,0.6
3.127,2732353.551,-0.03559,-0.40618,9.87249,6,3,0.6
3.147,2732353.57,-0.02841,-0.39661,9.87009,6,3,0.6
3.164,2732353.589,-0.02124,-0.39182,9.87727,6,3,0.6
3.184,2732353.608,-0.01406,-0.399,9.87727,6,3,0.6
3.203,2732353.627,-0.02363,-0.40618,9.88684,6,3,0.6
3.223,2732353.646,-0.02363,-0.39422,9.88206,6,3,0.6
3.242,2732353.665,-0.02363,-0.38465,9.87967,6,3,0.6
3.26,2732353.684,-0.01884,-0.39661,9.87488,6,3,0.6
3.282,2732353.703,-0.01645,-0.40379,9.87488,6,3,0.6
3.3,2732353.722,-0.02363,-0.39661,9.87727,6,3,0.6
3.323,2732353.741,-0.02363,-0.4014,9.88206,6,3,0.6
3.339,2732353.76,-0.01167,-0.39661,9.87488,6,3,0.6
3.355,2732353.779,-0.02363,-0.37507,9.87249,6,3,0.6
3.38,2732353.798,-0.02363,-0.4014,9.88206,6,3,0.6
3.398,2732353.817,-0.01645,-0.40618,9.87967,6,3,0.6
3.419,2732353.836,-0.02363,-0.4014,9.88206,6,3,0.6
3.438,2732353.855,-0.01167,-0.40618,9.88445,6,3,0.6
3.454,2732353.874,-0.00688,-0.4014,9.86531,6,3,0.6
3.471,2732353.893,-0.01645,-0.39182,9.88206,6,3,0.6
3.489,2732353.912,-0.01406,-0.38943,9.88206,6,3,0.6
3.53,2732353.931,-0.01167,-0.399,9.88445,6,3,0.6
3.53,2732353.95,-0.01884,-0.399,9.88445,6,3,0.6
3.546,2732353.969,-0.02124,-0.39661,9.87488,6,3,0.6
3.565,2732353.988,-0.01645,-0.39422,9.88684,6,3,0.6
3.583,2732354.007,-0.01645,-0.38704,9.87009,6,3,0.6
3.602,2732354.026,-0.01406,-0.4014,9.87009,6,3,0.6
3.623,2732354.045,-0.01167,-0.40857,9.88206,6,3,0.6
3.64,2732354.064,-0.00688,-0.40618,9.87488,6,3,0.6
3.66,2732354.083,-0.01406,-0.40857,9.88206,6,3,0.6
3.681,2732354.102,-0.01884,-0.39422,9.87727,6,3,0.6
3.703,2732354.121,-0.02841,-0.40379,9.88206,6,3,0.6
3.723,2732354.14,-0.02841,-0.4014,9.87727,6,3,0.6
3.738,2732354.159,-0.02124,-0.4014,9.88445,6,3,0.6
3.755,2732354.178,-0.02602,-0.38943,9.87488,6,3,0.6
3.775,2732354.197,-0.02363,-0.39661,9.87488,6,3,0.6
3.795,2732354.216,-0.02124,-0.399,9.87727,6,3,0.6
3.813,2732354.235,-0.02363,-0.40857,9.87967,6,3,0.6
3.835,2732354.255,-0.01645,-0.39661,9.87488,6,3,0.6
3.851,2732354.274,-0.02841,-0.40379,9.88445,6,3,0.6
3.872,2732354.293,-0.02363,-0.38943,9.87967,6,3,0.6
3.89,2732354.312,-0.01645,-0.41097,9.88206,6,3,0.6
3.91,2732354.331,-0.01645,-0.39661,9.87249,6,3,0.6
3.928,2732354.35,-0.01167,-0.399,9.88684,6,3,0.6
3.947,2732354.369,-0.01645,-0.39182,9.8677,6,3,0.6
3.965,2732354.388,-0.00927,-0.40379,9.88206,6,3,0.6
3.983,2732354.407,-0.02124,-0.39661,9.88206,6,3,0.6
4.003,2732354.426,-0.04038,-0.41336,9.87967,6,3,0.6
4.023,2732354.445,-0.02124,-0.40857,9.88206,6,3,0.6
4.042,2732354.464,-0.02363,-0.39661,9.87009,6,3,0.6
4.061,2732354.483,-0.01884,-0.39422,9.88206,6,3,0.6
4.082,2732354.502,-0.01884,-0.399,9.8677,6,3,0.6
4.099,2732354.521,-0.02124,-0.38225,9.87488,6,3,0.6
4.118,2732354.54,-0.01884,-0.399,9.88445,6,3,0.6
4.136,2732354.559,-0.01167,-0.39661,9.87009,6,3,0.6
4.154,2732354.578,-0.01884,-0.39182,9.88684,6,3,0.6
4.175,2732354.597,-0.02363,-0.40857,9.87488,6,3,0.6
4.194,2732354.616,-0.02363,-0.39661,9.88684,6,3,0.6
4.214,2732354.635,-0.02363,-0.41575,9.87967,6,3,0.6
4.232,2732354.654,-0.01406,-0.41097,9.87967,6,3,0.6
4.254,2732354.673,-0.01406,-0.399,9.87488,6,3,0.6
4.272,2732354.692,-0.01645,-0.4014,9.87249,6,3,0.6
4.29,2732354.711,-0.01406,-0.41575,9.87249,6,3,0.6
4.31,2732354.73,-0.03559,-0.39661,9.88206,6,3,0.6
4.331,2732354.749,-0.02124,-0.39661,9.88445,6,3,0.6
4.346,2732354.768,-0.01645,-0.40618,9.8677,6,3,0.6
4.364,2732354.787,-0.02124,-0.38943,9.88206,6,3,0.6
4.384,2732354.806,-0.02363,-0.399,9.87967,6,3,0.6
4.403,2732354.825,-0.01884,-0.39661,9.87488,6,3,0.6
4.424,2732354.844,-0.01406,-0.4014,9.88206,6,3,0.6
4.443,2732354.863,-0.02841,-0.39182,9.87967,6,3,0.6
4.46,2732354.882,-0.02602,-0.39422,9.89402,6,3,0.6
4.484,2732354.901,-0.01406,-0.4014,9.87488,6,3,0.6
4.5,2732354.92,-0.02124,-0.40618,9.88445,6,3,0.6
4.522,2732354.939,-0.02124,-0.4014,9.87249,6,3,0.6
4.539,2732354.958,-0.01884,-0.39661,9.87727,6,3,0.6
4.555,2732354.977,-0.02841,-0.40379,9.87488,6,3,0.6
4.575,2732354.996,-0.02841,-0.4014,9.87488,6,3,0.6
4.594,2732355.015,-0.02124,-0.39661,9.87967,6,3,0.6
4.612,2732355.034,-0.01884,-0.39661,9.87488,6,3,0.6
4.632,2732355.053,-0.01884,-0.39422,9.88206,6,3,0.6
4.65,2732355.072,-0.02363,-0.40857,9.87727,6,3,0.6
4.67,2732355.091,-0.02841,-0.40379,9.88206,6,3,0.6
4.69,2732355.11,-0.02602,-0.40379,9.87967,6,3,0.6
4.707,2732355.129,-0.01884,-0.39661,9.87727,6,3,0.6
4.726,2732355.149,-0.02602,-0.41336,9.88206,6,3,0.6
4.749,2732355.168,-0.01406,-0.40618,9.8677,6,3,0.6
4.763,2732355.187,-0.01645,-0.399,9.89163,6,3,0.6
4.781,2732355.206,-0.02363,-0.38465,9.86531,6,3,0.6
4.805,2732355.225,-0.02124,-0.4014,9.87967,6,3,0.6
4.823,2732355.244,-0.03081,-0.41097,9.87727,6,3,0.6
4.841,2732355.263,-0.02602,-0.40857,9.88684,6,3,0.6
4.859,2732355.282,-0.02124,-0.39422,9.87727,6,3,0.6
4.878,2732355.301,-0.02602,-0.39661,9.8677,6,3,0.6
4.898,2732355.32,-0.02124,-0.39182,9.88445,6,3,0.6
4.92,2732355.339,-0.0332,-0.40618,9.88206,6,3,0.6
4.939,2732355.358,-0.02602,-0.38465,9.88206,6,3,0.6
4.955,2732355.377,-0.01645,-0.39661,9.87967,6,3,0.6
4.973,2732355.396,-0.01645,-0.4014,9.87488,6,3,0.6
4.993,2732355.415,-0.01645,-0.40379,9.87249,6,3,0.6
5.016,2732355.434,-0.02124,-0.4014,9.88684,6,3,0.6
5.03,2732355.453,-0.01406,-0.40379,9.87488,6,3,0.6
5.05,2732355.472,-0.01406,-0.38943,9.88206,6,3,0.6
5.068,2732355.491,-0.01884,-0.38943,9.89163,6,3,0.6
5.086,2732355.51,-0.01884,-0.4014,9.87967,6,3,0.6
5.106,2732355.529,-0.01645,-0.40379,9.87967,6,3,0.6
5.125,2732355.548,-0.02602,-0.41336,9.88684,6,3,0.6
5.145,2732355.567,-0.01645,-0.40618,9.8677,6,3,0.6
5.163,2732355.586,-0.02363,-0.40379,9.87727,6,3,0.6
5.18,2732355.605,-0.03081,-0.39661,9.87488,6,3,0.6
5.202,2732355.624,-0.02124,-0.39661,9.87727,6,3,0.6
5.224,2732355.643,-0.01167,-0.39661,9.87727,6,3,0.6
5.241,2732355.662,-0.01406,-0.399,9.88206,6,3,0.6
5.26,2732355.681,-0.02124,-0.39182,9.87727,6,3,0.6
5.28,2732355.7,-0.02602,-0.40379,9.87249,6,3,0.6
5.3,2732355.719,-0.02363,-0.39182,9.87727,6,3,0.6
5.318,2732355.738,-0.03081,-0.40857,9.87967,6,3,0.6
5.338,2732355.757,-0.02841,-0.399,9.87488,6,3,0.6
5.355,2732355.776,-0.02841,-0.39661,9.87727,6,3,0.6
5.371,2732355.795,-0.02363,-0.40379,9.88206,6,3,0.6
5.395,2732355.814,-0.02363,-0.39661,9.87488,6,3,0.6
5.412,2732355.833,-0.00927,-0.399,9.88206,6,3,0.6
5.433,2732355.852,-0.01884,-0.41575,9.87488,6,3,0.6
5.45,2732355.871,-0.01884,-0.39422,9.87967,6,3,0.6
5.469,2732355.89,-0.02841,-0.39661,9.87488,6,3,0.6
5.489,2732355.909,-0.02363,-0.39422,9.87967,6,3,0.6
5.529,2732355.928,-0.01167,-0.4014,9.87488,6,3,0.6
5.529,2732355.947,-0.01167,-0.4014,9.88684,6,3,0.6
5.542,2732355.966,-0.00927,-0.4014,9.87009,6,3,0.6
5.561,2732355.985,-0.01406,-0.40618,9.88445,6,3,0.6
5.581,2732356.004,-0.02602,-0.39422,9.88684,6,3,0.6
5.601,2732356.023,-0.01167,-0.4014,9.87009,6,3,0.6
5.621,2732356.043,-0.02602,-0.40857,9.88924,6,3,0.6
5.639,2732356.062,-0.01406,-0.40618,9.86531,6,3,0.6
5.656,2732356.081,-0.02124,-0.40857,9.88684,6,3,0.6
5.682,2732356.1,-0.02124,-0.39661,9.87967,6,3,0.6
5.7,2732356.119,-0.01406,-0.41336,9.87249,6,3,0.6
5.718,2732356.138,-0.01406,-0.41815,9.88206,6,3,0.6
5.74,2732356.157,-0.01167,-0.40618,9.87009,6,3,0.6
5.758,2732356.176,-0.01406,-0.39661,9.87967,6,3,0.6
5.771,2732356.195,-0.02124,-0.40618,9.87727,6,3,0.6
5.79,2732356.214,-0.01884,-0.399,9.87967,6,3,0.6
5.813,2732356.233,-0.01406,-0.39182,9.88445,6,3,0.6
5.832,2732356.252,-0.01645,-0.39661,9.87967,6,3,0.6
5.852,2732356.271,-0.01884,-0.41097,9.87727,6,3,0.6
5.867,2732356.29,-0.02124,-0.41815,9.87009,6,3,0.6
5.887,2732356.309,-0.01167,-0.40379,9.88445,6,3,0.6
5.906,2732356.328,-0.02363,-0.38465,9.8677,6,3,0.6
5.924,2732356.347,-0.01645,-0.39661,9.87967,6,3,0.6
5.943,2732356.366,-0.01645,-0.39661,9.86531,6,3,0.6
5.964,2732356.385,-0.02363,-0.399,9.87967,6,3,0.6
5.982,2732356.404,-0.02841,-0.39661,9.88684,6,3,0.6
6.002,2732356.423,-0.02124,-0.39422,9.87727,6,3,0.6
6.023,2732356.442,-0.01406,-0.4014,9.89163,6,3,0.6
6.041,2732356.461,-0.02602,-0.40618,9.87727,6,3,0.6
6.057,2732356.48,-0.01884,-0.40379,9.87727,6,3,0.6
6.08,2732356.499,-0.01167,-0.38704,9.87967,6,3,0.6
6.096,2732356.518,-0.02841,-0.4014,9.87009,6,3,0.6
6.115,2732356.537,-0.01884,-0.40857,9.88445,6,3,0.6
6.133,2732356.556,-0.01406,-0.4014,9.87488,6,3,0.6
6.153,2732356.575,-0.01167,-0.39661,9.87488,6,3,0.6
6.171,2732356.594,-0.01406,-0.40379,9.88684,6,3,0.6
6.191,2732356.613,-0.01884,-0.39661,9.87009,6,3,0.6
6.213,2732356.632,-0.01406,-0.39661,9.88684,6,3,0.6
6.233,2732356.651,-0.02124,-0.4014,9.8677,6,3,0.6
6.247,2732356.67,-0.01884,-0.40618,9.87009,6,3,0.6
6.265,2732356.689,-0.02363,-0.399,9.87967,6,3,0.6
6.284,2732356.708,-0.03559,-0.40618,9.88924,6,3,0.6
6.305,2732356.727,-0.02363,-0.40379,9.87727,6,3,0.6
6.324,2732356.746,-0.01645,-0.38704,9.88684,6,3,0.6
6.343,2732356.765,-0.01406,-0.40857,9.87727,6,3,0.6
6.361,2732356.784,-0.01884,-0.41097,9.87727,6,3,0.6
6.383,2732356.803,-0.02363,-0.399,9.88924,6,3,0.6
6.405,2732356.822,-0.01406,-0.41336,9.87009,6,3,0.6
6.425,2732356.841,-0.02841,-0.40379,9.88684,6,3,0.6
6.439,2732356.86,-0.02363,-0.39422,9.87009,6,3,0.6
6.458,2732356.879,-0.01884,-0.4014,9.87967,6,3,0.6
6.477,2732356.898,-0.02363,-0.399,9.87727,6,3,0.6
6.497,2732356.917,-0.02602,-0.40379,9.87249,6,3,0.6
6.516,2732356.937,-0.02124,-0.39422,9.88206,6,3,0.6
6.537,2732356.956,-0.01645,-0.4014,9.87488,6,3,0.6
6.556,2732356.975,-0.02363,-0.4014,9.87488,6,3,0.6
6.572,2732356.994,-0.01645,-0.4014,9.87727,6,3,0.6
6.59,2732357.013,-0.01884,-0.39422,9.87488,6,3,0.6
6.609,2732357.032,-0.02363,-0.41097,9.88206,6,3,0.6
6.629,2732357.051,-0.02363,-0.39661,9.87967,6,3,0.6
6.648,2732357.07,-0.01406,-0.39182,9.87727,6,3,0.6
6.666,2732357.089,-0.01167,-0.4014,9.88445,6,3,0.6
6.685,2732357.108,-0.01167,-0.39661,9.87488,6,3,0.6
6.704,2732357.127,-0.00688,-0.40618,9.87727,6,3,0.6
6.723,2732357.146,-0.02124,-0.40618,9.8677,6,3,0.6
6.741,2732357.165,-0.01645,-0.40618,9.87967,6,3,0.6
6.76,2732357.184,-0.02124,-0.41097,9.8677,6,3,0.6
6.782,2732357.203,-0.02124,-0.39661,9.88206,6,3,0.6
6.804,2732357.222,-0.02363,-0.399,9.87488,6,3,0.6
6.822,2732357.241,-0.02124,-0.399,9.87967,6,3,0.6
6.838,2732357.26,-0.01884,-0.399,9.87967,6,3,0.6
6.854,2732357.279,-0.01884,-0.39182,9.87249,6,3,0.6
6.877,2732357.298,-0.02124,-0.40618,9.88206,6,3,0.6
6.895,2732357.317,-0.01884,-0.39661,9.87488,6,3,0.6
6.917,2732357.336,-0.01884,-0.39182,9.89163,6,3,0.6
6.937,2732357.355,-0.02602,-0.41575,9.86292,6,3,0.6
6.954,2732357.374,-0.01884,-0.40379,9.88206,6,3,0.6
6.975,2732357.393,-0.02124,-0.38943,9.87249,6,3,0.6
6.99,2732357.412,-0.01884,-0.40379,9.88445,6,3,0.6
7.013,2732357.431,-0.01645,-0.399,9.87727,6,3,0.6
7.029,2732357.45,-0.02602,-0.40379,9.87249,6,3,0.6
7.047,2732357.469,-0.00927,-0.40379,9.87727,6,3,0.6
7.069,2732357.488,-0.02602,-0.399,9.87488,6,3,0.6
7.084,2732357.507,-0.01645,-0.4014,9.88445,6,3,0.6
7.103,2732357.526,-0.00927,-0.4014,9.87249,6,3,0.6
7.124,2732357.545,-0.01645,-0.41336,9.87488,6,3,0.6
7.141,2732357.564,-0.01406,-0.41097,9.88924,6,3,0.6
7.16,2732357.583,-0.02363,-0.39422,9.87249,6,3,0.6
7.18,2732357.602,-0.01406,-0.4014,9.88206,6,3,0.6
7.2,2732357.621,-0.02124,-0.4014,9.87488,6,3,0.6
7.221,2732357.64,-0.02124,-0.39422,9.87967,6,3,0.6
7.242,2732357.659,-0.01884,-0.39661,9.88206,6,3,0.6
7.257,2732357.678,-0.02841,-0.38704,9.87249,6,3,0.6
7.274,2732357.697,-0.02841,-0.39422,9.88445,6,3,0.6
7.298,2732357.716,-0.02124,-0.40618,9.87727,6,3,0.6
7.316,2732357.735,-0.02363,-0.40618,9.88445,6,3,0.6
7.332,2732357.754,-0.01884,-0.39422,9.87009,6,3,0.6
7.353,2732357.773,-0.02602,-0.41097,9.87967,6,3,0.6
7.372,2732357.792,-0.02363,-0.38943,9.87727,6,3,0.6
7.389,2732357.811,-0.02124,-0.39422,9.87727,6,3,0.6
7.411,2732357.831,-0.01167,-0.4014,9.88445,6,3,0.6
7.428,2732357.85,-0.02602,-0.39661,9.8677,6,3,0.6
7.45,2732357.869,-0.01645,-0.40379,9.88684,6,3,0.6
7.464,2732357.888,-0.02124,-0.40379,9.87488,6,3,0.6
7.483,2732357.907,-0.01167,-0.40379,9.87488,6,3,0.6
7.502,2732357.926,-0.02124,-0.39661,9.87727,6,3,0.6
7.528,2732357.945,-0.02841,-0.399,9.87009,6,3,0.6
7.54,2732357.964,-0.01645,-0.40618,9.87727,6,3,0.6
7.56,2732357.983,-0.02124,-0.40857,9.88206,6,3,0.6
7.58,2732358.002,-0.01645,-0.40618,9.87727,6,3,0.6
7.6,2732358.021,-0.02363,-0.40379,9.87727,6,3,0.6
7.618,2732358.04,-0.02602,-0.399,9.88206,6,3,0.6
7.636,2732358.059,-0.02363,-0.39182,9.88206,6,3,0.6
7.654,2732358.078,-0.01884,-0.399,9.87009,6,3,0.6
7.674,2732358.097,-0.0332,-0.39182,9.88206,6,3,0.6
7.698,2732358.116,-0.02124,-0.40857,9.8677,6,3,0.6
7.713,2732358.135,-0.01884,-0.41097,9.88445,6,3,0.6
7.733,2732358.154,-0.02124,-0.40618,9.87967,6,3,0.6
7.754,2732358.173,-0.01645,-0.40379,9.88445,6,3,0.6
7.77,2732358.192,-0.02124,-0.39422,9.88445,6,3,0.6
7.788,2732358.211,-0.02363,-0.40379,9.87009,6,3,0.6
7.808,2732358.23,-0.01884,-0.40857,9.87727,6,3,0.6
7.828,2732358.249,-0.02602,-0.40618,9.87249,6,3,0.6
7.849,2732358.268,-0.02363,-0.38943,9.88445,6,3,0.6
7.864,2732358.287,-0.01884,-0.4014,9.87249,6,3,0.6
7.884,2732358.306,-0.01884,-0.41336,9.87009,6,3,0.6
7.904,2732358.325,-0.02124,-0.40618,9.87488,6,3,0.6
7.923,2732358.344,-0.02363,-0.39182,9.87488,6,3,0.6
7.941,2732358.363,-0.02124,-0.40379,9.87488,6,3,0.6
7.959,2732358.382,-0.02124,-0.40379,9.87727,6,3,0.6
7.983,2732358.401,-0.02124,-0.40379,9.87488,6,3,0.6
7.999,2732358.42,-0.01645,-0.399,9.87727,6,3,0.6
8.018,2732358.439,-0.01645,-0.4014,9.87727,6,3,0.6
8.038,2732358.458,-0.01884,-0.40857,9.88445,6,3,0.6
8.058,2732358.477,-0.01884,-0.41815,9.87009,6,3,0.6
8.074,2732358.496,-0.02602,-0.399,9.88206,6,3,0.6
8.095,2732358.515,-0.02602,-0.40618,9.87488,6,3,0.6
8.111,2732358.534,-0.01884,-0.40857,9.88445,6,3,0.6
8.131,2732358.553,-0.02363,-0.4014,9.87727,6,3,0.6
8.15,2732358.572,-0.01884,-0.40379,9.87488,6,3,0.6
8.169,2732358.591,-0.02124,-0.41575,9.87727,6,3,0.6
8.188,2732358.61,-0.01167,-0.38943,9.88684,6,3,0.6
8.208,2732358.629,-0.01167,-0.40618,9.87967,6,3,0.6
8.226,2732358.648,-0.01406,-0.4014,9.86531,6,3,0.6
8.248,2732358.667,-0.00927,-0.39661,9.87249,6,3,0.6
8.263,2732358.686,-0.01645,-0.4014,9.87727,6,3,0.6
8.281,2732358.705,-0.02363,-0.40379,9.88684,6,3,0.6
8.302,2732358.725,-0.01645,-0.39661,9.86531,6,3,0.6
8.322,2732358.744,-0.01645,-0.40379,9.87488,6,3,0.6
8.341,2732358.763,-0.03081,-0.4014,9.88206,6,3,0.6
8.36,2732358.782,-0.02363,-0.399,9.87727,6,3,0.6
8.379,2732358.801,-0.01884,-0.41097,9.87967,6,3,0.6
8.4,2732358.82,-0.01645,-0.39661,9.87727,6,3,0.6
8.421,2732358.839,-0.00927,-0.40379,9.87488,6,3,0.6
8.44,2732358.858,-0.01645,-0.399,9.88206,6,3,0.6
8.457,2732358.877,-0.01167,-0.39182,9.8677,6,3,0.6
8.474,2732358.896,-0.01645,-0.40857,9.89163,6,3,0.6
8.494,2732358.915,-0.02363,-0.39422,9.8677,6,3,0.6
8.513,2732358.934,-0.01406,-0.39422,9.87967,6,3,0.6
8.533,2732358.953,-0.02363,-0.40618,9.87488,6,3,0.6
8.552,2732358.972,-0.01406,-0.399,9.87488,6,3,0.6
8.571,2732358.991,-0.01167,-0.40379,9.88684,6,3,0.6
8.587,2732359.01,-0.02124,-0.39422,9.87727,6,3,0.6
8.606,2732359.029,-0.01406,-0.40618,9.88684,6,3,0.6
8.627,2732359.048,-0.00927,-0.41097,9.87249,6,3,0.6
8.645,2732359.067,-0.01645,-0.399,9.88206,6,3,0.6
8.664,2732359.086,-0.00927,-0.41097,9.87727,6,3,0.6
8.685,2732359.105,-0.02602,-0.4014,9.87009,6,3,0.6
8.706,2732359.124,-0.01645,-0.40857,9.87967,6,3,0.6
8.725,2732359.143,-0.01406,-0.39661,9.87488,6,3,0.6
8.742,2732359.162,-0.02363,-0.40857,9.87488,6,3,0.6
8.758,2732359.181,-0.02124,-0.40857,9.87727,6,3,0.6
8.779,2732359.2,-0.00927,-0.42054,9.88206,6,3,0.6
8.798,2732359.219,-0.01406,-0.399,9.87009,6,3,0.6
8.82,2732359.238,-0.01645,-0.39422,9.87488,6,3,0.6
8.836,2732359.257,-0.02124,-0.4014,9.87967,6,3,0.6
8.854,2732359.276,-0.01406,-0.41336,9.87249,6,3,0.6
8.872,2732359.295,-0.00688,-0.4014,9.88445,6,3,0.6
8.892,2732359.314,0.0003,-0.41097,9.87488,6,3,0.6
8.912,2732359.333,-0.02602,-0.399,9.88206,6,3,0.6
8.933,2732359.352,-0.03081,-0.41336,9.88206,6,3,0.6
8.949,2732359.371,-0.02124,-0.40857,9.86292,6,3,0.6
8.973,2732359.39,-0.02363,-0.40379,9.88924,6,3,0.6
8.986,2732359.409,-0.01884,-0.40379,9.87249,6,3,0.6
9.006,2732359.428,-0.02124,-0.40379,9.88684,6,3,0.6
9.026,2732359.447,-0.01884,-0.40379,9.87727,6,3,0.6
9.045,2732359.466,-0.01645,-0.39661,9.87249,6,3,0.6
9.062,2732359.485,-0.01884,-0.41336,9.87488,6,3,0.6
9.083,2732359.504,-0.01884,-0.40618,9.87249,6,3,0.6
9.102,2732359.523,-0.02124,-0.38704,9.87727,6,3,0.6
9.125,2732359.542,-0.01884,-0.40618,9.87727,6,3,0.6
9.139,2732359.561,-0.0332,-0.40618,9.87249,6,3,0.6
9.157,2732359.58,-0.0332,-0.4014,9.88206,6,3,0.6
9.177,2732359.599,-0.02124,-0.39422,9.87249,6,3,0.6
9.198,2732359.619,-0.02124,-0.39422,9.87488,6,3,0.6
9.219,2732359.638,-0.02124,-0.41336,9.87249,6,3,0.6
9.235,2732359.657,-0.01884,-0.40379,9.87727,6,3,0.6
9.258,2732359.676,-0.01884,-0.39661,9.88206,6,3,0.6
9.275,2732359.695,-0.01167,-0.399,9.87967,6,3,0.6
9.291,2732359.714,-0.01406,-0.4014,9.89163,6,3,0.6
9.312,2732359.733,-0.02124,-0.399,9.87488,6,3,0.6
9.333,2732359.752,-0.01406,-0.4014,9.88445,6,3,0.6
9.353,2732359.771,-0.01645,-0.399,9.87009,6,3,0.6
9.367,2732359.79,-0.02363,-0.39661,9.87967,6,3,0.6
9.385,2732359.809,-0.00688,-0.38943,9.89163,6,3,0.6
9.406,2732359.828,-0.01645,-0.4014,9.87727,6,3,0.6
9.425,2732359.847,-0.01645,-0.41097,9.87727,6,3,0.6
9.445,2732359.866,-0.01406,-0.4014,9.8677,6,3,0.6
9.461,2732359.885,-0.01884,-0.40618,9.87967,6,3,0.6
9.481,2732359.904,-0.01645,-0.40618,9.87488,6,3,0.6
9.501,2732359.923,-0.02124,-0.40379,9.87249,6,3,0.6
9.529,2732359.942,-0.02124,-0.40618,9.88206,6,3,0.6
9.538,2732359.961,-0.02363,-0.41815,9.88684,6,3,0.6
9.556,2732359.98,-0.01884,-0.4014,9.87249,6,3,0.6
9.578,2732359.999,-0.00449,-0.42054,9.88684,6,3,0.6
9.596,2732360.018,-0.01406,-0.4014,9.87488,6,3,0.6
9.615,2732360.037,-0.00449,-0.39422,9.87009,6,3,0.6
9.637,2732360.056,-0.01884,-0.40618,9.87967,6,3,0.6
9.653,2732360.075,-0.0332,-0.40857,9.87488,6,3,0.6
9.671,2732360.094,-0.01406,-0.40618,9.87727,6,3,0.6
9.691,2732360.113,-0.01645,-0.399,9.87488,6,3,0.6
9.711,2732360.132,-0.01645,-0.399,9.87488,6,3,0.6
9.733,2732360.151,-0.01884,-0.4014,9.87249,6,3,0.6
9.751,2732360.17,-0.02602,-0.4014,9.88445,6,3,0.6
9.767,2732360.189,-0.02841,-0.40379,9.87488,6,3,0.6
9.785,2732360.208,-0.01645,-0.40857,9.87249,6,3,0.6
9.806,2732360.227,-0.02124,-0.41097,9.87967,6,3,0.6
9.825,2732360.246,-0.00927,-0.40379,9.87488,6,3,0.6
9.843,2732360.265,-0.02124,-0.41575,9.87967,6,3,0.6
9.86,2732360.284,-0.02602,-0.41097,9.88206,6,3,0.6
9.886,2732360.303,-0.01884,-0.40379,9.8677,6,3,0.6
9.906,2732360.322,-0.02841,-0.41097,9.88684,6,3,0.6
9.924,2732360.341,-0.03081,-0.40379,9.87009,6,3,0.6
9.938,2732360.36,-0.01167,-0.40618,9.87967,6,3,0.6
9.956,2732360.379,-0.02363,-0.399,9.87967,6,3,0.6
9.978,2732360.398,-0.02124,-0.39661,9.87727,6,3,0.6
10.0,2732360.417,-0.01406,-0.41097,9.88684,6,3,0.6
10.014,2732360.436,-0.00688,-0.42054,9.87249,6,3,0.6
10.037,2732360.455,-0.02124,-0.40618,9.88924,6,3,0.6
10.052,2732360.474,-0.02602,-0.4014,9.87249,6,3,0.6
10.07,2732360.493,-0.02124,-0.40857,9.87967,6,3,0.6
10.096,2732360.513,-0.02363,-0.40379,9.87967,6,3,0.6
10.108,2732360.532,-0.02363,-0.41575,9.87488,6,3,0.6
10.129,2732360.551,-0.01884,-0.40618,9.87488,6,3,0.6
10.147,2732360.57,-0.02602,-0.4014,9.88206,6,3,0.6
10.166,2732360.589,-0.01406,-0.40857,9.87488,6,3,0.6
10.184,2732360.608,-0.01884,-0.399,9.87488,6,3,0.6
10.203,2732360.627,-0.02363,-0.40857,9.87967,6,3,0.6
10.225,2732360.646,-0.01406,-0.38704,9.87967,6,3,0.6
10.241,2732360.665,-0.01645,-0.40857,9.87488,6,3,0.6
10.264,2732360.684,-0.01406,-0.41815,9.88924,6,3,0.6
10.284,2732360.703,-0.03559,-0.4014,9.86292,6,3,0.6
10.305,2732360.722,-0.01406,-0.40618,9.87488,6,3,0.6
10.318,2732360.741,-0.00927,-0.4014,9.87249,6,3,0.6
10.339,2732360.76,-0.02124,-0.4014,9.87249,6,3,0.6
10.358,2732360.779,-0.01884,-0.39422,9.88445,6,3,0.6
10.375,2732360.798,-0.01884,-0.4014,9.87488,6,3,0.6
10.396,2732360.817,-0.01167,-0.40618,9.88445,6,3,0.6
10.413,2732360.836,-0.01406,-0.39661,9.87488,6,3,0.6
10.436,2732360.855,-0.02841,-0.40857,9.86531,6,3,0.6
10.454,2732360.874,-0.01406,-0.41336,9.88445,6,3,0.6
10.469,2732360.893,-0.01167,-0.4014,9.8677,6,3,0.6
10.489,2732360.912,-0.02124,-0.41336,9.88684,6,3,0.6
10.512,2732360.931,-0.01167,-0.41097,9.87488,6,3,0.6
10.528,2732360.95,-0.02363,-0.40618,9.88684,6,3,0.6
10.55,2732360.969,-0.00927,-0.40379,9.87488,6,3,0.6
10.566,2732360.988,-0.01406,-0.39422,9.87488,6,3,0.6
10.584,2732361.007,-0.00688,-0.41336,9.87967,6,3,0.6
10.605,2732361.026,-0.02363,-0.399,9.87727,6,3,0.6
10.625,2732361.045,-0.01645,-0.40857,9.87727,6,3,0.6
10.641,2732361.064,-0.03559,-0.40857,9.8677,6,3,0.6
10.661,2732361.083,-0.01167,-0.399,9.88684,6,3,0.6
10.68,2732361.102,-0.01406,-0.4014,9.87967,6,3,0.6
10.702,2732361.121,-0.02124,-0.40857,9.87249,6,3,0.6
10.723,2732361.14,-0.02124,-0.41097,9.88445,6,3,0.6
10.742,2732361.159,-0.01645,-0.40618,9.87249,6,3,0.6
10.754,2732361.178,-0.01167,-0.39661,9.87727,6,3,0.6
10.775,2732361.197,-0.02602,-0.41815,9.87249,6,3,0.6
10.795,2732361.216,-0.02363,-0.41097,9.88924,6,3,0.6
10.816,2732361.235,-0.01645,-0.4014,9.88206,6,3,0.6
10.836,2732361.254,-0.02602,-0.4014,9.8677,6,3,0.6
10.851,2732361.273,-0.01645,-0.38943,9.88445,6,3,0.6
10.87,2732361.292,-0.01645,-0.4014,9.86292,6,3,0.6
10.888,2732361.311,-0.01884,-0.4014,9.88684,6,3,0.6
10.909,2732361.33,-0.02602,-0.4014,9.87488,6,3,0.6
10.928,2732361.349,-0.01884,-0.40857,9.87967,6,3,0.6
10.946,2732361.368,-0.02124,-0.399,9.88206,6,3,0.6
10.965,2732361.387,-0.02124,-0.41097,9.88684,6,3,0.6
10.983,2732361.406,-0.01406,-0.399,9.87967,6,3,0.6
11.002,2732361.426,-0.01645,-0.40618,9.87009,6,3,0.6
11.024,2732361.445,-0.01406,-0.4014,9.88206,6,3,0.6
11.042,2732361.464,-0.01406,-0.40618,9.87488,6,3,0.6
11.061,2732361.483,-0.00688,-0.41097,9.87249,6,3,0.6
11.083,2732361.502,-0.01167,-0.40857,9.87967,6,3,0.6
11.098,2732361.521,-0.02124,-0.41575,9.86292,6,3,0.6
11.119,2732361.54,-0.00927,-0.39182,9.88684,6,3,0.6
11.137,2732361.559,-0.01645,-0.40857,9.87488,6,3,0.6
11.154,2732361.578,-0.02124,-0.40618,9.87967,6,3,0.6
11.174,2732361.597,-0.01167,-0.41575,9.88445,6,3,0.6
11.194,2732361.616,-0.02602,-0.41575,9.87727,6,3,0.6
11.214,2732361.635,-0.02124,-0.40618,9.87488,6,3,0.6
11.231,2732361.654,-0.02841,-0.40379,9.86531,6,3,0.6
11.25,2732361.673,-0.01406,-0.40618,9.87249,6,3,0.6
11.269,2732361.692,-0.01406,-0.40618,9.87967,6,3,0.6
11.288,2732361.711,-0.00927,-0.40618,9.8677,6,3,0.6
11.307,2732361.73,-0.02363,-0.40618,9.88206,6,3,0.6
11.326,2732361.749,-0.02363,-0.41097,9.87727,6,3,0.6
11.346,2732361.768,-0.01167,-0.40857,9.87488,6,3,0.6
11.365,2732361.787,-0.02363,-0.41336,9.87009,6,3,0.6
11.385,2732361.806,-0.03081,-0.40857,9.88445,6,3,0.6
11.406,2732361.825,-0.01406,-0.399,9.87009,6,3,0.6
11.422,2732361.844,-0.01406,-0.40618,9.88206,6,3,0.6
11.442,2732361.863,-0.01645,-0.40618,9.87967,6,3,0.6
11.459,2732361.882,-0.02124,-0.40379,9.87727,6,3,0.6
11.481,2732361.901,-0.01406,-0.38943,9.88206,6,3,0.6
11.502,2732361.92,-0.01406,-0.40857,9.87009,6,3,0.6
11.53,2732361.939,-0.01406,-0.40618,9.88684,6,3,0.6
11.535,2732361.958,-0.02363,-0.39182,9.87249,6,3,0.6
11.554,2732361.977,-0.02363,-0.399,9.88206,6,3,0.6
11.575,2732361.996,-0.01645,-0.42054,9.87249,6,3,0.6
11.594,2732362.015,-0.01167,-0.42054,9.87488,6,3,0.6
11.611,2732362.034,-0.01167,-0.40379,9.87727,6,3,0.6
11.631,2732362.053,-0.01645,-0.40379,9.87488,6,3,0.6
11.649,2732362.072,-0.02124,-0.41097,9.87727,6,3,0.6
11.667,2732362.091,-0.0332,-0.39661,9.87488,6,3,0.6
11.687,2732362.11,-0.03081,-0.41097,9.87727,6,3,0.6
11.706,2732362.129,-0.02602,-0.40379,9.87249,6,3,0.6
11.725,2732362.148,-0.02841,-0.40379,9.87249,6,3,0.6
11.746,2732362.167,-0.02363,-0.40857,9.87967,6,3,0.6
11.764,2732362.186,-0.02124,-0.41097,9.87249,6,3,0.6
11.781,2732362.205,-0.02363,-0.41575,9.88206,6,3,0.6
11.801,2732362.224,-0.02602,-0.40618,9.87249,6,3,0.6
11.82,2732362.243,-0.01406,-0.41097,9.88684,6,3,0.6
11.841,2732362.262,-0.01645,-0.41575,9.87727,6,3,0.6
11.859,2732362.281,-0.02602,-0.41336,9.87967,6,3,0.6
11.878,2732362.3,-0.02124,-0.41097,9.87967,6,3,0.6
11.899,2732362.32,-0.02124,-0.40618,9.88206,6,3,0.6
11.918,2732362.339,-0.02363,-0.40857,9.87967,6,3,0.6
11.937,2732362.358,-0.02124,-0.4014,9.87967,6,3,0.6
11.954,2732362.377,-0.01645,-0.399,9.88924,6,3,0.6
11.972,2732362.396,-0.02602,-0.40618,9.87727,6,3,0.6
11.993,2732362.415,-0.01406,-0.399,9.87488,6,3,0.6
12.013,2732362.434,-0.02841,-0.40857,9.87967,6,3,0.6
12.029,2732362.453,-0.01645,-0.40618,9.87727,6,3,0.6
12.051,2732362.472,-0.01167,-0.41336,9.88924,6,3,0.6
12.067,2732362.491,-0.01645,-0.40618,9.87009,6,3,0.6
12.09,2732362.51,-0.02363,-0.41097,9.87967,6,3,0.6
12.105,2732362.529,-0.03081,-0.40618,9.87727,6,3,0.6
12.125,2732362.548,-0.02124,-0.40857,9.87249,6,3,0.6
12.143,2732362.567,-0.01406,-0.41097,9.88206,6,3,0.6
12.163,2732362.586,-0.01884,-0.399,9.87009,6,3,0.6
12.181,2732362.605,-0.02363,-0.40857,9.88924,6,3,0.6
12.203,2732362.624,-0.01645,-0.42054,9.87727,6,3,0.6
12.221,2732362.643,-0.02124,-0.399,9.88445,6,3,0.6
12.238,2732362.662,-0.01884,-0.39661,9.87727,6,3,0.6
12.259,2732362.681,-0.01884,-0.4014,9.87488,6,3,0.6
12.277,2732362.7,-0.02124,-0.40618,9.88684,6,3,0.6
12.296,2732362.719,-0.01167,-0.40618,9.87488,6,3,0.6
12.319,2732362.738,-0.00688,-0.42293,9.87967,6,3,0.6
12.335,2732362.757,-0.01645,-0.41336,9.87967,6,3,0.6
12.355,2732362.776,-0.01884,-0.41575,9.87488,6,3,0.6
12.372,2732362.795,-0.02363,-0.41336,9.88684,6,3,0.6
12.391,2732362.814,-0.02124,-0.4014,9.86292,6,3,0.6
12.41,2732362.833,-0.01645,-0.4014,9.88206,6,3,0.6
12.429,2732362.852,-0.01645,-0.41097,9.87488,6,3,0.6
12.45,2732362.871,-0.01884,-0.41336,9.87249,6,3,0.6
12.467,2732362.89,-0.01884,-0.399,9.88684,6,3,0.6
12.487,2732362.909,-0.01406,-0.40857,9.87249,6,3,0.6
12.505,2732362.928,-0.01884,-0.42293,9.88445,6,3,0.6
12.524,2732362.947,-0.02841,-0.399,9.87009,6,3,0.6
12.543,2732362.966,-0.02363,-0.40857,9.88445,6,3,0.6
12.562,2732362.985,-0.0332,-0.40618,9.88445,6,3,0.6
12.58,2732363.004,-0.01645,-0.42293,9.88445,6,3,0.6
12.604,2732363.023,-0.02124,-0.41815,9.88445,6,3,0.6
12.624,2732363.042,-0.01645,-0.40379,9.86531,6,3,0.6
12.638,2732363.061,-0.01406,-0.41097,9.88206,6,3,0.6
12.656,2732363.08,-0.03081,-0.4014,9.87967,6,3,0.6
12.677,2732363.099,-0.01167,-0.4014,9.88684,6,3,0.6
12.696,2732363.118,-0.02841,-0.4014,9.87488,6,3,0.6
12.714,2732363.137,-0.02841,-0.41815,9.87967,6,3,0.6
12.734,2732363.156,-0.02363,-0.40857,9.88445,6,3,0.6
12.756,2732363.175,-0.02363,-0.41097,9.87727,6,3,0.6
12.771,2732363.194,-0.01645,-0.39422,9.87727,6,3,0.6
12.791,2732363.214,-0.00927,-0.39182,9.87488,6,3,0.6
12.809,2732363.233,-0.02841,-0.40379,9.88206,6,3,0.6
12.831,2732363.252,-0.01167,-0.41097,9.88445,6,3,0.6
12.848,2732363.271,-0.00927,-0.39661,9.87967,6,3,0.6
12.868,2732363.29,-0.01645,-0.40618,9.87488,6,3,0.6
12.885,2732363.309,-0.02363,-0.41097,9.87727,6,3,0.6
12.905,2732363.328,-0.01884,-0.40857,9.88445,6,3,0.6
12.924,2732363.347,-0.02363,-0.39661,9.87488,6,3,0.6
12.943,2732363.366,-0.02363,-0.41575,9.88684,6,3,0.6
12.961,2732363.385,-0.00927,-0.41097,9.87009,6,3,0.6
12.98,2732363.404,-0.01884,-0.42293,9.87967,6,3,0.6
13.0,2732363.423,-0.01645,-0.41097,9.87727,6,3,0.6
13.021,2732363.442,-0.02363,-0.41336,9.87249,6,3,0.6
13.037,2732363.461,-0.02124,-0.40857,9.87967,6,3,0.6
13.056,2732363.48,-0.01406,-0.41575,9.87727,6,3,0.6
13.082,2732363.499,-0.02363,-0.40379,9.88445,6,3,0.6
13.096,2732363.518,-0.02363,-0.40618,9.87967,6,3,0.6
13.115,2732363.537,-0.01884,-0.4014,9.88445,6,3,0.6
13.132,2732363.556,-0.01406,-0.40379,9.87967,6,3,0.6
13.151,2732363.575,-0.01884,-0.41336,9.88684,6,3,0.6
13.171,2732363.594,-0.02841,-0.40857,9.88206,6,3,0.6
13.19,2732363.613,-0.02602,-0.39422,9.87727,6,3,0.6
13.209,2732363.632,-0.01167,-0.40379,9.88206,6,3,0.6
13.229,2732363.651,-0.01406,-0.41336,9.87249,6,3,0.6
13.247,2732363.67,-0.01406,-0.40857,9.87488,6,3,0.6
13.265,2732363.689,-0.01884,-0.4014,9.88684,6,3,0.6
13.285,2732363.708,-0.02363,-0.41815,9.87727,6,3,0.6
13.304,2732363.727,-0.01884,-0.39661,9.88206,6,3,0.6
13.323,2732363.746,-0.01406,-0.40379,9.88206,6,3,0.6
13.343,2732363.765,-0.01406,-0.40618,9.88206,6,3,0.6
13.361,2732363.784,-0.01645,-0.42054,9.87967,6,3,0.6
13.379,2732363.803,-0.02124,-0.4014,9.88445,6,3,0.6
13.402,2732363.822,-0.02124,-0.4014,9.87488,6,3,0.6
13.419,2732363.841,-0.02124,-0.4014,9.87967,6,3,0.6
13.437,2732363.86,-0.01167,-0.40857,9.88206,6,3,0.6
13.455,2732363.879,-0.00927,-0.41336,9.87727,6,3,0.6
13.475,2732363.898,-0.01645,-0.40379,9.87009,6,3,0.6
13.5,2732363.917,-0.02124,-0.41097,9.88684,6,3,0.6
13.526,2732363.936,-0.01884,-0.399,9.87488,6,3,0.6
13.533,2732363.955,-0.02124,-0.41815,9.88445,6,3,0.6
13.55,2732363.974,-0.02602,-0.41097,9.87727,6,3,0.6
13.57,2732363.993,-0.01167,-0.40379,9.88924,6,3,0.6
13.589,2732364.012,-0.01645,-0.40618,9.87009,6,3,0.6
13.609,2732364.031,-0.01406,-0.40857,9.87967,6,3,0.6
13.628,2732364.05,-0.01406,-0.41097,9.87009,6,3,0.6
13.647,2732364.069,-0.01884,-0.41097,9.87967,6,3,0.6
13.664,2732364.088,-0.01406,-0.41097,9.88206,6,3,0.6
13.684,2732364.108,-0.01884,-0.41575,9.87249,6,3,0.6
13.702,2732364.127,-0.01884,-0.41336,9.88445,6,3,0.6
13.723,2732364.146,-0.02124,-0.41815,9.87488,6,3,0.6
13.743,2732364.165,-0.01884,-0.40618,9.87967,6,3,0.6
13.76,2732364.184,-0.01884,-0.41336,9.87967,6,3,0.6
13.781,2732364.203,-0.02602,-0.40618,9.87727,6,3,0.6
13.801,2732364.222,-0.01884,-0.41097,9.87967,6,3,0.6
13.82,2732364.241,-0.02363,-0.42293,9.88206,6,3,0.6
13.837,2732364.26,-0.01645,-0.40857,9.87488,6,3,0.6
13.854,2732364.279,-0.01884,-0.41336,9.87249,6,3,0.6
13.879,2732364.298,-0.02124,-0.399,9.87249,6,3,0.6
13.895,2732364.317,-0.01645,-0.41336,9.88206,6,3,0.6
13.914,2732364.336,-0.01884,-0.41336,9.87249,6,3,0.6
13.932,2732364.355,-0.01406,-0.41336,9.88206,6,3,0.6
13.951,2732364.374,-0.01645,-0.4014,9.87249,6,3,0.6
13.973,2732364.393,-0.01884,-0.39422,9.88445,6,3,0.6
13.989,2732364.412,-0.01406,-0.40618,9.87727,6,3,0.6
14.01,2732364.431,-0.02124,-0.40857,9.88924,6,3,0.6
14.03,2732364.45,-0.01167,-0.40379,9.87488,6,3,0.6
14.05,2732364.469,-0.01645,-0.4014,9.87249,6,3,0.6
14.065,2732364.488,-0.02124,-0.399,9.88206,6,3,0.6
14.083,2732364.507,-0.02124,-0.41815,9.87488,6,3,0.6
14.102,2732364.526,-0.02363,-0.40379,9.87967,6,3,0.6
14.121,2732364.545,-0.02124,-0.41336,9.87727,6,3,0.6
14.141,2732364.564,-0.00927,-0.4014,9.87249,6,3,0.6
14.16,2732364.583,-0.02124,-0.41336,9.87967,6,3,0.6
14.181,2732364.602,-0.0332,-0.4014,9.87727,6,3,0.6
14.199,2732364.621,-0.02363,-0.41336,9.87967,6,3,0.6
14.222,2732364.64,-0.01884,-0.41815,9.87727,6,3,0.6
14.236,2732364.659,-0.01645,-0.41097,9.87727,6,3,0.6
14.255,2732364.678,-0.02363,-0.4014,9.87249,6,3,0.6
14.275,2732364.697,-0.03081,-0.40857,9.87488,6,3,0.6
14.294,2732364.716,-0.02602,-0.40857,9.87488,6,3,0.6
14.315,2732364.735,-0.01884,-0.40857,9.88684,6,3,0.6
14.336,2732364.754,-0.03081,-0.4014,9.87249,6,3,0.6
14.354,2732364.773,-0.02124,-0.399,9.88206,6,3,0.6
14.371,2732364.792,-0.02124,-0.41097,9.87488,6,3,0.6
14.388,2732364.811,-0.02602,-0.4014,9.88206,6,3,0.6
14.409,2732364.83,-0.02124,-0.41815,9.87727,6,3,0.6
14.428,2732364.849,-0.01645,-0.40618,9.87727,6,3,0.6
14.45,2732364.868,-0.01884,-0.41815,9.87249,6,3,0.6
14.464,2732364.887,-0.01884,-0.40857,9.88445,6,3,0.6
14.483,2732364.906,-0.01884,-0.40379,9.87009,6,3,0.6
14.502,2732364.925,-0.02363,-0.40857,9.87967,6,3,0.6
14.522,2732364.944,-0.02124,-0.41575,9.87488,6,3,0.6
14.541,2732364.963,-0.02602,-0.40618,9.87727,6,3,0.6
14.565,2732364.982,-0.01406,-0.4014,9.88924,6,3,0.6
14.584,2732365.002,-0.02124,-0.40857,9.87967,6,3,0.6
14.599,2732365.021,-0.01406,-0.40618,9.88206,6,3,0.6
14.618,2732365.04,-0.01167,-0.399,9.87967,6,3,0.6
14.641,2732365.059,-0.01645,-0.41336,9.87727,6,3,0.6
14.654,2732365.078,-0.00688,-0.41815,9.88924,6,3,0.6
14.675,2732365.097,-0.02124,-0.40618,9.87727,6,3,0.6
14.694,2732365.116,-0.02841,-0.4014,9.88445,6,3,0.6
14.713,2732365.135,-0.01167,-0.41097,9.87488,6,3,0.6
14.732,2732365.154,-0.02124,-0.40379,9.87967,6,3,0.6
14.755,2732365.173,-0.02602,-0.40857,9.86292,6,3,0.6
14.77,2732365.192,-0.00688,-0.40618,9.88684,6,3,0.6
14.788,2732365.211,-0.01884,-0.41097,9.88206,6,3,0.6
14.811,2732365.23,-0.02124,-0.39422,9.87967,6,3,0.6
14.827,2732365.249,-0.01884,-0.4014,9.88206,6,3,0.6
14.846,2732365.268,-0.01406,-0.40618,9.87727,6,3,0.6
14.864,2732365.287,-0.02363,-0.41336,9.89163,6,3,0.6
14.883,2732365.306,-0.02124,-0.41336,9.86531,6,3,0.6
14.901,2732365.325,-0.02363,-0.40618,9.88206,6,3,0.6
14.924,2732365.344,-0.01645,-0.40379,9.87488,6,3,0.6
14.942,2732365.363,-0.00927,-0.41097,9.88445,6,3,0.6
14.959,2732365.382,-0.02124,-0.40618,9.87488,6,3,0.6
14.982,2732365.401,-0.02841,-0.40857,9.87967,6,3,0.6
15.001,2732365.42,-0.02124,-0.40379,9.88206,6,3,0.6
15.021,2732365.439,-0.02363,-0.41097,9.87249,6,3,0.6
15.039,2732365.458,-0.02124,-0.40618,9.87488,6,3,0.6
15.054,2732365.477,-0.02124,-0.39661,9.87967,6,3,0.6
15.073,2732365.496,-0.00449,-0.41575,9.88445,6,3,0.6
15.096,2732365.515,-0.02124,-0.40618,9.88445,6,3,0.6
15.111,2732365.534,-0.01645,-0.40857,9.87249,6,3,0.6
15.131,2732365.553,-0.02124,-0.41336,9.89163,6,3,0.6
15.15,2732365.572,-0.01884,-0.41575,9.87009,6,3,0.6
15.169,2732365.591,-0.02124,-0.40857,9.87249,6,3,0.6
15.187,2732365.61,-0.01645,-0.41097,9.87967,6,3,0.6
15.21,2732365.629,-0.02363,-0.41097,9.87488,6,3,0.6
15.226,2732365.648,-0.02124,-0.42054,9.88445,6,3,0.6
15.247,2732365.667,-0.01406,-0.39422,9.87009,6,3,0.6
15.263,2732365.686,-0.01406,-0.40857,9.88924,6,3,0.6
15.282,2732365.705,-0.02602,-0.41097,9.88924,6,3,0.6
15.302,2732365.724,-0.01884,-0.39661,9.87249,6,3,0.6
15.326,2732365.743,-0.02602,-0.40379,9.88445,6,3,0.6
15.341,2732365.762,-0.01884,-0.41097,9.88924,6,3,0.6
15.358,2732365.781,-0.01167,-0.41336,9.87488,6,3,0.6
15.378,2732365.8,-0.00927,-0.42293,9.87967,6,3,0.6
15.4,2732365.819,-0.00927,-0.41097,9.87727,6,3,0.6
15.415,2732365.838,-0.02124,-0.41097,9.88206,6,3,0.6
15.436,2732365.857,-0.02363,-0.39661,9.88445,6,3,0.6
15.458,2732365.876,-0.01884,-0.41336,9.88206,6,3,0.6
15.474,2732365.896,-0.02124,-0.40379,9.87488,6,3,0.6
15.5,2732365.915,-0.01884,-0.40379,9.88684,6,3,0.6
15.528,2732365.934,-0.01167,-0.399,9.87488,6,3,0.6
15.53,2732365.953,-0.01884,-0.399,9.87727,6,3,0.6
15.549,2732365.972,-0.00927,-0.40857,9.88445,6,3,0.6
15.568,2732365.991,-0.00688,-0.4014,9.87009,6,3,0.6
15.587,2732366.01,-0.01167,-0.40618,9.87727,6,3,0.6
15.606,2732366.029,-0.02124,-0.40857,9.87488,6,3,0.6
15.627,2732366.048,-0.01884,-0.4014,9.87488,6,3,0.6
15.644,2732366.067,-0.02602,-0.40857,9.87967,6,3,0.6
15.664,2732366.086,-0.02124,-0.40379,9.87488,6,3,0.6
15.685,2732366.105,-0.01884,-0.41815,9.87488,6,3,0.6
15.705,2732366.124,-0.01645,-0.41097,9.87727,6,3,0.6
15.722,2732366.143,-0.01645,-0.40379,9.88206,6,3,0.6
15.741,2732366.162,-0.02124,-0.42054,9.87488,6,3,0.6
15.758,2732366.181,-0.01884,-0.40618,9.88206,6,3,0.6
15.783,2732366.2,-0.02363,-0.41575,9.86531,6,3,0.6
15.801,2732366.219,-0.01167,-0.41097,9.88924,6,3,0.6
15.819,2732366.238,-0.02124,-0.39661,9.8677,6,3,0.6
15.835,2732366.257,-0.00927,-0.41336,9.87727,6,3,0.6
15.858,2732366.276,-0.01884,-0.399,9.87727,6,3,0.6
15.873,2732366.295,-0.01645,-0.40618,9.87249,6,3,0.6
15.892,2732366.314,-0.01406,-0.399,9.88445,6,3,0.6
15.914,2732366.333,-0.01406,-0.40618,9.87009,6,3,0.6
15.93,2732366.352,-0.01645,-0.41815,9.88445,6,3,0.6
15.948,2732366.371,-0.01884,-0.40857,9.8677,6,3,0.6
15.968,2732366.39,-0.00688,-0.41097,9.87488,6,3,0.6
15.987,2732366.409,-0.03559,-0.41336,9.88206,6,3,0.6
16.006,2732366.428,-0.02124,-0.40379,9.87727,6,3,0.6
16.026,2732366.447,-0.0332,-0.41336,9.87967,6,3,0.6
16.052,2732366.466,-0.01645,-0.4014,9.87249,6,3,0.6
16.062,2732366.485,-0.02841,-0.40379,9.87488,6,3,0.6
16.085,2732366.504,-0.00927,-0.40379,9.87488,6,3,0.6
16.101,2732366.523,-0.02124,-0.399,9.87249,6,3,0.6
16.12,2732366.542,-0.01884,-0.40618,9.87009,6,3,0.6
16.138,2732366.561,-0.01406,-0.40857,9.87488,6,3,0.6
16.157,2732366.58,-0.01645,-0.41097,9.87967,6,3,0.6
16.178,2732366.599,-0.02602,-0.40857,9.87727,6,3,0.6
16.197,2732366.618,-0.01645,-0.399,9.88445,6,3,0.6
16.218,2732366.637,-0.01645,-0.399,9.87488,6,3,0.6
16.235,2732366.656,-0.02602,-0.40379,9.88684,6,3,0.6
16.257,2732366.675,-0.02841,-0.40618,9.88684,6,3,0.6
16.271,2732366.694,-0.02602,-0.40618,9.87967,6,3,0.6
16.291,2732366.713,-0.02363,-0.40857,9.87727,6,3,0.6
16.312,2732366.732,-0.02841,-0.41336,9.87488,6,3,0.6
16.329,2732366.751,-0.01884,-0.4014,9.88924,6,3,0.6
16.347,2732366.77,-0.01884,-0.40618,9.87488,6,3,0.6
16.366,2732366.79,-0.00688,-0.40618,9.87488,6,3,0.6
16.384,2732366.809,-0.02841,-0.41575,9.88206,6,3,0.6
16.403,2732366.828,-0.01406,-0.41097,9.8677,6,3,0.6
16.423,2732366.847,-0.02363,-0.39661,9.87967,6,3,0.6
16.442,2732366.866,-0.03081,-0.4014,9.87009,6,3,0.6
16.463,2732366.885,-0.01884,-0.42532,9.88445,6,3,0.6
16.484,2732366.904,-0.02841,-0.41336,9.8677,6,3,0.6
16.502,2732366.923,-0.02363,-0.39422,9.87727,6,3,0.6
16.522,2732366.942,-0.01406,-0.41097,9.87727,6,3,0.6
16.541,2732366.961,-0.01167,-0.40618,9.87727,6,3,0.6
16.557,2732366.98,-0.01645,-0.41097,9.87727,6,3,0.6
16.581,2732366.999,-0.01884,-0.4014,9.8677,6,3,0.6
16.596,2732367.018,-0.02124,-0.41575,9.87488,6,3,0.6
16.617,2732367.037,-0.01167,-0.40618,9.89642,6,3,0.6
16.637,2732367.056,-0.02841,-0.41336,9.87009,6,3,0.6
16.652,2732367.075,-0.01884,-0.40857,9.88445,6,3,0.6
16.671,2732367.094,-0.00927,-0.40618,9.87249,6,3,0.6
16.69,2732367.113,-0.01645,-0.41097,9.88445,6,3,0.6
16.71,2732367.132,-0.01645,-0.40618,9.87249,6,3,0.6
16.733,2732367.151,-0.01645,-0.41575,9.87009,6,3,0.6
16.75,2732367.17,-0.00927,-0.41097,9.87249,6,3,0.6
16.768,2732367.189,-0.01884,-0.40857,9.87009,6,3,0.6
16.785,2732367.208,-0.01406,-0.41097,9.88924,6,3,0.6
16.805,2732367.227,-0.01645,-0.40379,9.8677,6,3,0.6
16.827,2732367.246,-0.02124,-0.41575,9.88445,6,3,0.6
16.842,2732367.265,-0.01884,-0.39661,9.87249,6,3,0.6
16.861,2732367.284,-0.01167,-0.40857,9.88445,6,3,0.6
16.883,2732367.303,-0.02363,-0.40618,9.87967,6,3,0.6
16.903,2732367.322,-0.01406,-0.40857,9.87488,6,3,0.6
16.923,2732367.341,-0.01645,-0.42054,9.88445,6,3,0.6
16.938,2732367.36,-0.02363,-0.42054,9.87488,6,3,0.6
16.958,2732367.379,-0.02602,-0.40379,9.88206,6,3,0.6
16.976,2732367.398,-0.01884,-0.40857,9.87727,6,3,0.6
16.999,2732367.417,-0.01406,-0.41097,9.87967,6,3,0.6
17.018,2732367.436,-0.02602,-0.40618,9.87967,6,3,0.6
17.033,2732367.455,-0.01645,-0.39661,9.87488,6,3,0.6
17.056,2732367.474,-0.02363,-0.40857,9.87488,6,3,0.6
17.073,2732367.493,-0.01645,-0.41336,9.88684,6,3,0.6
17.098,2732367.512,-0.01884,-0.40857,9.89163,6,3,0.6
17.108,2732367.531,-0.01884,-0.40618,9.87967,6,3,0.6
17.129,2732367.55,-0.01167,-0.41097,9.87967,6,3,0.6
17.147,2732367.569,-0.02124,-0.40618,9.88445,6,3,0.6
17.166,2732367.588,-0.01645,-0.41575,9.87967,6,3,0.6
17.184,2732367.607,-0.01884,-0.41815,9.88206,6,3,0.6
17.203,2732367.626,-0.01884,-0.40379,9.87967,6,3,0.6
17.224,2732367.645,-0.02602,-0.41336,9.88445,6,3,0.6
17.24,2732367.664,-0.01884,-0.41336,9.87727,6,3,0.6
17.261,2732367.684,-0.01884,-0.41097,9.87967,6,3,0.6
17.281,2732367.703,-0.01884,-0.40857,9.87488,6,3,0.6
17.3,2732367.722,-0.01884,-0.41575,9.88206,6,3,0.6
17.32,2732367.741,-0.01406,-0.41336,9.87967,6,3,0.6
17.342,2732367.76,-0.02602,-0.41336,9.87488,6,3,0.6
17.358,2732367.779,-0.01645,-0.41815,9.87967,6,3,0.6
17.377,2732367.798,-0.02602,-0.4014,9.87488,6,3,0.6
17.398,2732367.817,-0.01884,-0.42054,9.87967,6,3,0.6
17.416,2732367.836,-0.01406,-0.38943,9.87488,6,3,0.6
17.433,2732367.855,-0.01884,-0.4014,9.87727,6,3,0.6
17.453,2732367.874,-0.00927,-0.41336,9.87249,6,3,0.6
17.471,2732367.893,-0.02124,-0.41575,9.88206,6,3,0.6
17.49,2732367.912,-0.01884,-0.39661,9.88206,6,3,0.6
17.527,2732367.931,-0.01167,-0.40618,9.87488,6,3,0.6
17.528,2732367.95,-0.02124,-0.42293,9.87488,6,3,0.6
17.546,2732367.969,-0.00688,-0.41097,9.8677,6,3,0.6
17.565,2732367.988,-0.01406,-0.42054,9.88206,6,3,0.6
17.583,2732368.007,-0.01645,-0.40618,9.87727,6,3,0.6
17.603,2732368.026,-0.02124,-0.41336,9.87488,6,3,0.6
17.623,2732368.045,-0.00209,-0.41336,9.88445,6,3,0.6
17.642,2732368.064,-0.01406,-0.41575,9.87967,6,3,0.6
17.662,2732368.083,-0.02124,-0.41575,9.8677,6,3,0.6
17.684,2732368.102,-0.01884,-0.41336,9.87967,6,3,0.6
17.702,2732368.121,-0.01645,-0.41097,9.87249,6,3,0.6
17.723,2732368.14,-0.02602,-0.41575,9.88924,6,3,0.6
17.74,2732368.159,-0.02124,-0.41336,9.87488,6,3,0.6
17.756,2732368.178,-0.02124,-0.40857,9.88684,6,3,0.6
17.775,2732368.197,-0.01645,-0.41575,9.88445,6,3,0.6
17.794,2732368.216,-0.02124,-0.4014,9.87727,6,3,0.6
17.813,2732368.235,-0.02602,-0.40618,9.87009,6,3,0.6
17.834,2732368.254,-0.01645,-0.39661,9.87488,6,3,0.6
17.852,2732368.273,-0.02602,-0.41097,9.87488,6,3,0.6
17.873,2732368.292,-0.03081,-0.42054,9.87727,6,3,0.6
17.889,2732368.311,-0.01645,-0.41575,9.87727,6,3,0.6
17.908,2732368.33,-0.02124,-0.40618,9.87249,6,3,0.6
17.927,2732368.349,-0.02124,-0.41815,9.88684,6,3,0.6
17.947,2732368.368,-0.01406,-0.40857,9.87488,6,3,0.6
17.966,2732368.387,-0.01884,-0.40618,9.87249,6,3,0.6
17.983,2732368.406,-0.02124,-0.41336,9.87967,6,3,0.6
18.001,2732368.425,-0.01645,-0.41097,9.87488,6,3,0.6
18.023,2732368.444,-0.02602,-0.41336,9.87967,6,3,0.6
18.042,2732368.463,-0.02124,-0.41575,9.87727,6,3,0.6
18.064,2732368.482,-0.01167,-0.41575,9.87967,6,3,0.6
18.086,2732368.501,-0.01406,-0.399,9.87249,6,3,0.6
18.102,2732368.52,-0.01406,-0.40857,9.86292,6,3,0.6
18.117,2732368.539,-0.01645,-0.40857,9.87967,6,3,0.6
18.136,2732368.558,-0.01884,-0.40618,9.87009,6,3,0.6
18.154,2732368.578,-0.02124,-0.40618,9.88684,6,3,0.6
18.173,2732368.597,-0.01167,-0.40379,9.88445,6,3,0.6
18.194,2732368.616,-0.01406,-0.40618,9.88206,6,3,0.6
18.216,2732368.635,-0.02363,-0.40379,9.88445,6,3,0.6
18.235,2732368.654,-0.02602,-0.41336,9.88206,6,3,0.6
18.254,2732368.673,-0.01167,-0.40618,9.88206,6,3,0.6
18.272,2732368.692,-0.01406,-0.40857,9.87727,6,3,0.6
18.288,2732368.711,-0.02363,-0.40379,9.87967,6,3,0.6
18.308,2732368.73,-0.01406,-0.41097,9.87967,6,3,0.6
18.327,2732368.749,-0.01406,-0.40618,9.88445,6,3,0.6
18.349,2732368.768,-0.02363,-0.41097,9.87727,6,3,0.6
18.364,2732368.787,-0.01645,-0.40618,9.87009,6,3,0.6
18.383,2732368.806,-0.02124,-0.40618,9.87727,6,3,0.6
18.401,2732368.825,-0.01645,-0.41815,9.87967,6,3,0.6
18.424,2732368.844,-0.02124,-0.40379,9.87249,6,3,0.6
18.442,2732368.863,-0.02363,-0.399,9.87967,6,3,0.6
18.459,2732368.882,-0.02841,-0.41336,9.87727,6,3,0.6
18.48,2732368.901,-0.02602,-0.41097,9.87249,6,3,0.6
18.499,2732368.92,-0.01645,-0.4014,9.88445,6,3,0.6
18.522,2732368.939,-0.01884,-0.39661,9.88206,6,3,0.6
18.539,2732368.958,-0.01645,-0.41097,9.88206,6,3,0.6
18.555,2732368.977,-0.01645,-0.40618,9.88206,6,3,0.6
18.575,2732368.996,-0.01406,-0.41575,9.87727,6,3,0.6
18.592,2732369.015,-0.02602,-0.40857,9.88206,6,3,0.6
18.615,2732369.034,-0.01884,-0.39661,9.87727,6,3,0.6
18.635,2732369.053,-0.01645,-0.41336,9.87488,6,3,0.6
18.65,2732369.072,-0.01884,-0.41336,9.88924,6,3,0.6
18.668,2732369.091,-0.01406,-0.4014,9.87249,6,3,0.6
18.687,2732369.11,-0.02363,-0.4014,9.87967,6,3,0.6
18.711,2732369.129,-0.01884,-0.40618,9.8677,6,3,0.6
18.726,2732369.148,-0.02124,-0.40857,9.88445,6,3,0.6
18.745,2732369.167,-0.02124,-0.41336,9.87009,6,3,0.6
18.763,2732369.186,-0.01406,-0.42532,9.88206,6,3,0.6
18.781,2732369.205,-0.01645,-0.399,9.87727,6,3,0.6
18.801,2732369.224,-0.01645,-0.41815,9.88924,6,3,0.6
18.822,2732369.243,-0.01884,-0.41097,9.87727,6,3,0.6
18.842,2732369.262,-0.01884,-0.41336,9.88206,6,3,0.6
18.859,2732369.281,-0.01645,-0.42054,9.87488,6,3,0.6
18.878,2732369.3,-0.02124,-0.40618,9.8677,6,3,0.6
18.901,2732369.319,-0.01645,-0.42293,9.87967,6,3,0.6
18.919,2732369.338,-0.01645,-0.41575,9.87488,6,3,0.6
18.94,2732369.357,-0.01406,-0.40379,9.88206,6,3,0.6
18.954,2732369.376,-0.00449,-0.41815,9.88445,6,3,0.6
18.974,2732369.395,-0.02124,-0.40618,9.87249,6,3,0.6
18.996,2732369.414,-0.02124,-0.41815,9.88684,6,3,0.6
19.016,2732369.433,-0.02124,-0.40857,9.88206,6,3,0.6
19.03,2732369.452,-0.01167,-0.40618,9.87249,6,3,0.6
19.05,2732369.472,-0.01645,-0.42054,9.88445,6,3,0.6
19.072,2732369.491,-0.01884,-0.41815,9.86531,6,3,0.6
19.087,2732369.51,-0.02124,-0.40618,9.87967,6,3,0.6
19.105,2732369.529,-0.01167,-0.41336,9.88445,6,3,0.6
19.125,2732369.548,-0.01884,-0.41097,9.87488,6,3,0.6
19.144,2732369.567,-0.02841,-0.40379,9.8677,6,3,0.6
19.163,2732369.586,-0.02124,-0.41815,9.87727,6,3,0.6
19.181,2732369.605,-0.02841,-0.40379,9.87727,6,3,0.6
19.205,2732369.624,-0.02124,-0.41575,9.88684,6,3,0.6
19.225,2732369.643,-0.02124,-0.4014,9.87967,6,3,0.6
19.239,2732369.662,-0.01884,-0.40857,9.87727,6,3,0.6
19.257,2732369.681,-0.02363,-0.40618,9.87488,6,3,0.6
19.278,2732369.7,-0.03081,-0.40379,9.8677,6,3,0.6
19.296,2732369.719,-0.02124,-0.42532,9.89642,6,3,0.6
19.315,2732369.738,-0.01884,-0.41336,9.89163,6,3,0.6
19.336,2732369.757,-0.02602,-0.41815,9.86531,6,3,0.6
19.356,2732369.776,-0.02363,-0.41815,9.88684,6,3,0.6
19.372,2732369.795,-0.02124,-0.41097,9.87249,6,3,0.6
19.396,2732369.814,-0.02124,-0.4014,9.87009,6,3,0.6
19.411,2732369.833,-0.01645,-0.41575,9.88206,6,3,0.6
19.434,2732369.852,-0.00927,-0.41097,9.87488,6,3,0.6
19.452,2732369.871,-0.01645,-0.41815,9.88684,6,3,0.6
19.471,2732369.89,-0.02363,-0.41575,9.87967,6,3,0.6
19.485,2732369.909,-0.01884,-0.41097,9.88206,6,3,0.6
19.526,2732369.928,-0.00927,-0.41097,9.87249,6,3,0.6
19.528,2732369.947,-0.01406,-0.39661,9.87967,6,3,0.6
19.542,2732369.966,-0.01884,-0.40857,9.88206,6,3,0.6
19.562,2732369.985,-0.02124,-0.41336,9.88445,6,3,0.6
19.582,2732370.004,-0.02363,-0.41575,9.87727,6,3,0.6
19.601,2732370.023,-0.02363,-0.41097,9.87727,6,3,0.6
19.621,2732370.042,-0.01406,-0.40618,9.88445,6,3,0.6
19.638,2732370.061,-0.01884,-0.40618,9.87967,6,3,0.6
19.656,2732370.08,-0.03081,-0.41097,9.88924,6,3,0.6
19.677,2732370.099,-0.01645,-0.41336,9.87488,6,3,0.6
19.697,2732370.118,-0.02363,-0.40857,9.87488,6,3,0.6
19.719,2732370.137,-0.02841,-0.40857,9.89163,6,3,0.6
19.737,2732370.156,-0.01645,-0.40379,9.8677,6,3,0.6
19.756,2732370.175,-0.02124,-0.4014,9.89163,6,3,0.6
19.773,2732370.194,-0.02363,-0.399,9.88206,6,3,0.6
19.791,2732370.213,-0.02124,-0.41336,9.87488,6,3,0.6
19.81,2732370.232,-0.01406,-0.40857,9.87488,6,3,0.6
19.833,2732370.251,-0.02602,-0.4014,9.88206,6,3,0.6
19.852,2732370.27,-0.01167,-0.41097,9.88206,6,3,0.6
19.868,2732370.289,-0.01884,-0.40379,9.87488,6,3,0.6
19.885,2732370.308,-0.00927,-0.40618,9.87249,6,3,0.6
19.905,2732370.327,-0.02363,-0.41097,9.88206,6,3,0.6
19.925,2732370.346,-0.02124,-0.4014,9.87727,6,3,0.6
19.943,2732370.365,-0.02124,-0.399,9.87009,6,3,0.6
19.963,2732370.385,-0.01167,-0.41336,9.87009,6,3,0.6
19.986,2732370.404,-0.01645,-0.4014,9.87967,6,3,0.6
20.005,2732370.423,-0.01645,-0.40857,9.87727,6,3,0.6
20.022,2732370.442,-0.00688,-0.41097,9.87967,6,3,0.6
20.041,2732370.461,-0.00927,-0.41097,9.87249,6,3,0.6
20.055,2732370.48,-0.02124,-0.41336,9.87967,6,3,0.6
20.077,2732370.499,-0.01884,-0.40379,9.87488,6,3,0.6
20.096,2732370.518,-0.01884,-0.41575,9.87967,6,3,0.6
20.114,2732370.537,-0.01645,-0.41336,9.87727,6,3,0.6
20.134,2732370.556,-0.02602,-0.41575,9.88445,6,3,0.6
20.152,2732370.575,-0.01884,-0.40618,9.87967,6,3,0.6
20.17,2732370.594,-0.01406,-0.40379,9.88445,6,3,0.6
20.191,2732370.613,-0.01406,-0.41575,9.87488,6,3,0.6
20.213,2732370.632,-0.01884,-0.41097,9.89163,6,3,0.6
20.229,2732370.651,-0.01645,-0.42054,9.88206,6,3,0.6
20.248,2732370.67,-0.00927,-0.399,9.88445,6,3,0.6
20.267,2732370.689,-0.00927,-0.41336,9.88445,6,3,0.6
20.284,2732370.708,-0.01884,-0.39661,9.87967,6,3,0.6
20.304,2732370.727,-0.03081,-0.40618,9.87967,6,3,0.6
20.323,2732370.746,-0.01884,-0.39661,9.86531,6,3,0.6
20.342,2732370.765,-0.03559,-0.41575,9.87488,6,3,0.6
20.361,2732370.784,-0.01884,-0.40379,9.88445,6,3,0.6
20.384,2732370.803,-0.01406,-0.41336,9.88445,6,3,0.6
20.4,2732370.822,-0.02363,-0.4014,9.87727,6,3,0.6
20.425,2732370.841,-0.01167,-0.399,9.89402,6,3,0.6
20.441,2732370.86,-0.02363,-0.4014,9.8677,6,3,0.6
20.458,2732370.879,-0.02602,-0.41575,9.88684,6,3,0.6
20.476,2732370.898,-0.02124,-0.41336,9.87967,6,3,0.6
20.495,2732370.917,-0.01167,-0.42054,9.87249,6,3,0.6
20.517,2732370.936,-0.01645,-0.42532,9.88684,6,3,0.6
20.536,2732370.955,-0.01645,-0.41815,9.88206,6,3,0.6
20.553,2732370.974,-0.02363,-0.40857,9.87249,6,3,0.6
20.571,2732370.993,-0.01884,-0.42532,9.88206,6,3,0.6
20.589,2732371.012,-0.01884,-0.40379,9.87967,6,3,0.6
20.612,2732371.031,-0.02602,-0.4014,9.87967,6,3,0.6
20.63,2732371.05,-0.02124,-0.39661,9.88206,6,3,0.6
20.651,2732371.069,-0.02124,-0.40379,9.88684,6,3,0.6
20.665,2732371.088,-0.01645,-0.42532,9.86292,6,3,0.6
20.684,2732371.107,-0.02363,-0.41815,9.88206,6,3,0.6
20.702,2732371.126,-0.01645,-0.41336,9.8677,6,3,0.6
20.725,2732371.145,-0.02363,-0.42054,9.87967,6,3,0.6
20.741,2732371.164,-0.02602,-0.42293,9.87488,6,3,0.6
20.761,2732371.183,-0.02363,-0.40618,9.87727,6,3,0.6
20.781,2732371.202,-0.01645,-0.40379,9.88206,6,3,0.6
20.8,2732371.221,-0.01645,-0.41336,9.8677,6,3,0.6
20.824,2732371.24,-0.02124,-0.41097,9.88445,6,3,0.6
20.84,2732371.259,-0.01406,-0.42054,9.87249,6,3,0.6
20.857,2732371.279,-0.02124,-0.41097,9.87727,6,3,0.6
20.875,2732371.298,-0.02363,-0.399,9.87727,6,3,0.6
20.898,2732371.317,-0.02602,-0.41097,9.89163,6,3,0.6
20.913,2732371.336,-0.01645,-0.41097,9.88924,6,3,0.6
20.935,2732371.355,-0.01645,-0.41336,9.87727,6,3,0.6
20.952,2732371.374,-0.02124,-0.41815,9.88445,6,3,0.6
20.975,2732371.393,-0.01406,-0.41575,9.87967,6,3,0.6
20.989,2732371.412,-0.01884,-0.42054,9.87727,6,3,0.6
21.013,2732371.431,-0.01645,-0.399,9.88206,6,3,0.6
21.031,2732371.45,-0.02363,-0.41336,9.8677,6,3,0.6
21.046,2732371.469,-0.01406,-0.399,9.87727,6,3,0.6
21.068,2732371.488,-0.01645,-0.41575,9.8677,6,3,0.6
21.087,2732371.507,-0.01167,-0.40379,9.88206,6,3,0.6
21.104,2732371.526,-0.01167,-0.399,9.8677,6,3,0.6
21.123,2732371.545,-0.02124,-0.40379,9.87488,6,3,0.6
21.142,2732371.564,-0.01406,-0.41097,9.87967,6,3,0.6
21.16,2732371.583,-0.03081,-0.41815,9.86531,6,3,0.6
21.181,2732371.602,-0.01884,-0.40379,9.88445,6,3,0.6
21.199,2732371.621,-0.01406,-0.41815,9.87967,6,3,0.6
21.22,2732371.64,-0.01645,-0.41575,9.87727,6,3,0.6
21.237,2732371.659,-0.01167,-0.41336,9.88206,6,3,0.6
21.258,2732371.678,-0.01167,-0.40857,9.87727,6,3,0.6
21.275,2732371.697,-0.01167,-0.42054,9.87727,6,3,0.6
21.294,2732371.716,-0.02602,-0.40618,9.87249,6,3,0.6
21.313,2732371.735,-0.02841,-0.41336,9.87727,6,3,0.6
21.333,2732371.754,-0.02124,-0.399,9.87009,6,3,0.6
21.35,2732371.773,-0.01884,-0.42772,9.87009,6,3,0.6
21.374,2732371.792,-0.01645,-0.40857,9.87249,6,3,0.6
21.388,2732371.811,-0.01884,-0.40857,9.88684,6,3,0.6
21.411,2732371.83,-0.01645,-0.41097,9.87967,6,3,0.6
21.428,2732371.849,-0.01645,-0.41097,9.87967,6,3,0.6
21.445,2732371.868,-0.01645,-0.42054,9.87727,6,3,0.6
21.463,2732371.887,-0.02363,-0.40857,9.87967,6,3,0.6
21.483,2732371.906,-0.02124,-0.41097,9.88206,6,3,0.6
21.526,2732371.925,-0.01645,-0.41097,9.87727,6,3,0.6
21.527,2732371.944,-0.01167,-0.41336,9.87727,6,3,0.6
21.542,2732371.963,-0.02602,-0.40857,9.87967,6,3,0.6
21.56,2732371.982,-0.02363,-0.41097,9.87967,6,3,0.6
21.579,2732372.001,-0.02124,-0.40618,9.87967,6,3,0.6
21.599,2732372.02,-0.02602,-0.399,9.88445,6,3,0.6
21.617,2732372.039,-0.01884,-0.399,9.87009,6,3,0.6
21.637,2732372.058,-0.01884,-0.41815,9.87009,6,3,0.6
21.653,2732372.077,-0.02363,-0.41815,9.88445,6,3,0.6
21.674,2732372.096,-0.01645,-0.42054,9.87488,6,3,0.6
21.694,2732372.115,-0.01884,-0.41575,9.87488,6,3,0.6
21.712,2732372.134,-0.02602,-0.41097,9.87727,6,3,0.6
21.733,2732372.153,-0.02124,-0.41815,9.87488,6,3,0.6
21.753,2732372.173,-0.01167,-0.41815,9.88684,6,3,0.6
21.772,2732372.192,-0.01884,-0.4014,9.87727,6,3,0.6
21.788,2732372.211,-0.01884,-0.41097,9.88206,6,3,0.6
21.811,2732372.23,-0.01406,-0.4014,9.87967,6,3,0.6
21.827,2732372.249,-0.01167,-0.41336,9.87488,6,3,0.6
21.845,2732372.268,-0.01167,-0.40857,9.88445,6,3,0.6
21.868,2732372.287,-0.02602,-0.40857,9.87488,6,3,0.6
21.882,2732372.306,-0.02124,-0.399,9.88206,6,3,0.6
21.903,2732372.325,-0.01406,-0.41815,9.88445,6,3,0.6
21.921,2732372.344,-0.01645,-0.41815,9.88445,6,3,0.6
21.941,2732372.363,-0.00927,-0.41097,9.88206,6,3,0.6
21.958,2732372.382,-0.01884,-0.40618,9.87249,6,3,0.6
21.983,2732372.401,-0.02363,-0.40618,9.88445,6,3,0.6
21.998,2732372.42,-0.02124,-0.41097,9.87727,6,3,0.6
22.019,2732372.439,-0.01645,-0.40379,9.88684,6,3,0.6
22.041,2732372.458,-0.02363,-0.40857,9.8677,6,3,0.6
22.057,2732372.477,-0.01884,-0.42054,9.88206,6,3,0.6
22.073,2732372.496,-0.01645,-0.40379,9.87488,6,3,0.6
22.093,2732372.515,-0.02363,-0.42054,9.87727,6,3,0.6
22.111,2732372.534,-0.02841,-0.41575,9.87488,6,3,0.6
22.131,2732372.553,-0.02124,-0.41336,9.86531,6,3,0.6
22.149,2732372.572,-0.0332,-0.40618,9.87967,6,3,0.6
22.169,2732372.591,-0.02124,-0.42293,9.87488,6,3,0.6
22.186,2732372.61,-0.01167,-0.41097,9.87967,6,3,0.6
22.207,2732372.629,-0.02841,-0.41575,9.87488,6,3,0.6
22.226,2732372.648,-0.00927,-0.40379,9.88445,6,3,0.6
22.245,2732372.667,-0.02124,-0.4014,9.88445,6,3,0.6
22.267,2732372.686,-0.02124,-0.41336,9.87009,6,3,0.6
22.283,2732372.705,-0.02124,-0.42054,9.89881,6,3,0.6
22.301,2732372.724,-0.02363,-0.40379,9.8677,6,3,0.6
22.323,2732372.743,-0.01645,-0.41815,9.88206,6,3,0.6
22.342,2732372.762,-0.01645,-0.4014,9.87249,6,3,0.6
22.358,2732372.781,-0.01884,-0.41575,9.87488,6,3,0.6
22.378,2732372.8,-0.01406,-0.40857,9.87967,6,3,0.6
22.4,2732372.819,-0.01167,-0.41575,9.87009,6,3,0.6
22.419,2732372.838,-0.01645,-0.40857,9.87727,6,3,0.6
22.439,2732372.857,-0.01645,-0.41336,9.87249,6,3,0.6
22.455,2732372.876,-0.01884,-0.41575,9.87249,6,3,0.6
22.473,2732372.895,-0.01167,-0.41575,9.88445,6,3,0.6
22.491,2732372.914,-0.00927,-0.41097,9.87967,6,3,0.6
22.514,2732372.933,-0.01645,-0.40857,9.88445,6,3,0.6
22.533,2732372.952,-0.02124,-0.4014,9.88445,6,3,0.6
22.553,2732372.971,-0.01406,-0.40618,9.87727,6,3,0.6
22.568,2732372.99,-0.02363,-0.40379,9.87488,6,3,0.6
22.587,2732373.009,-0.01406,-0.40379,9.87249,6,3,0.6
22.606,2732373.028,-0.02602,-0.40618,9.87967,6,3,0.6
22.626,2732373.047,-0.01406,-0.41097,9.87727,6,3,0.6
22.645,2732373.067,-0.02841,-0.42293,9.87727,6,3,0.6
22.663,2732373.086,-0.01406,-0.41575,9.87967,6,3,0.6
22.68,2732373.105,-0.00927,-0.42054,9.87488,6,3,0.6
22.706,2732373.124,-0.02363,-0.40618,9.88206,6,3,0.6
22.725,2732373.143,-0.02124,-0.41336,9.88445,6,3,0.6
22.742,2732373.162,-0.02124,-0.41336,9.86531,6,3,0.6
22.757,2732373.181,-0.01884,-0.41815,9.88445,6,3,0.6
22.778,2732373.2,-0.01167,-0.40379,9.88206,6,3,0.6
22.8,2732373.219,-0.02363,-0.41097,9.87488,6,3,0.6
22.819,2732373.238,-0.01884,-0.41575,9.87727,6,3,0.6
22.839,2732373.257,-0.01167,-0.42293,9.88924,6,3,0.6
22.854,2732373.276,-0.02602,-0.41097,9.87488,6,3,0.6
22.872,2732373.295,-0.01406,-0.41575,9.88206,6,3,0.6
22.891,2732373.314,-0.02602,-0.41336,9.87967,6,3,0.6
22.91,2732373.333,-0.01406,-0.40857,9.87727,6,3,0.6
22.934,2732373.352,-0.01884,-0.4325,9.87249,6,3,0.6
22.948,2732373.371,-0.01406,-0.40618,9.87488,6,3,0.6
22.968,2732373.39,-0.01645,-0.399,9.8677,6,3,0.6
22.986,2732373.409,-0.01406,-0.40857,9.87967,6,3,0.6
23.005,2732373.428,-0.02124,-0.41336,9.88206,6,3,0.6
23.024,2732373.447,-0.02602,-0.42054,9.88445,6,3,0.6
23.047,2732373.466,-0.01884,-0.41097,9.88684,6,3,0.6
23.062,2732373.485,-0.01645,-0.42054,9.87249,6,3,0.6
23.087,2732373.504,-0.01884,-0.41575,9.87967,6,3,0.6
23.108,2732373.523,-0.01884,-0.40857,9.87727,6,3,0.6
23.121,2732373.542,-0.02124,-0.41097,9.87967,6,3,0.6
23.137,2732373.561,-0.01167,-0.40379,9.87009,6,3,0.6
23.156,2732373.58,-0.01645,-0.40379,9.88206,6,3,0.6
23.177,2732373.599,-0.02124,-0.399,9.88445,6,3,0.6
23.195,2732373.618,-0.01406,-0.41097,9.87967,6,3,0.6
23.214,2732373.637,-0.00209,-0.40857,9.87249,6,3,0.6
23.234,2732373.656,-0.02124,-0.40618,9.88206,6,3,0.6
23.254,2732373.675,-0.02841,-0.41097,9.87967,6,3,0.6
23.271,2732373.694,-0.02602,-0.41815,9.88445,6,3,0.6
23.291,2732373.713,-0.01167,-0.4325,9.87488,6,3,0.6
23.314,2732373.732,-0.01884,-0.4325,9.87967,6,3,0.6
23.328,2732373.751,-0.02124,-0.40857,9.87249,6,3,0.6
23.349,2732373.77,-0.01645,-0.4014,9.88206,6,3,0.6
23.367,2732373.789,-0.01884,-0.42054,9.8677,6,3,0.6
23.385,2732373.808,-0.01645,-0.40618,9.87488,6,3,0.6
23.406,2732373.827,-0.01645,-0.40857,9.87488,6,3,0.6
23.425,2732373.846,-0.00688,-0.40857,9.87249,6,3,0.6
23.443,2732373.865,-0.00927,-0.41336,9.88445,6,3,0.6
23.462,2732373.884,-0.02124,-0.41815,9.87249,6,3,0.6
23.482,2732373.903,-0.02841,-0.41815,9.88206,6,3,0.6
23.501,2732373.922,-0.02602,-0.40857,9.88445,6,3,0.6
23.529,2732373.941,-0.02363,-0.41097,9.87249,6,3,0.6
23.538,2732373.961,-0.01167,-0.41575,9.88206,6,3,0.6
23.555,2732373.98,-0.02363,-0.40379,9.85813,6,3,0.6
23.577,2732373.999,-0.01167,-0.40379,9.89402,6,3,0.6
23.595,2732374.018,-0.02363,-0.42054,9.87727,6,3,0.6
23.615,2732374.037,-0.02841,-0.42054,9.87967,6,3,0.6
23.636,2732374.056,-0.01645,-0.42532,9.87488,6,3,0.6
23.658,2732374.075,-0.01167,-0.41097,9.87488,6,3,0.6
23.67,2732374.094,-0.00927,-0.399,9.87727,6,3,0.6
23.691,2732374.113,-0.02363,-0.41336,9.87488,6,3,0.6
23.713,2732374.132,-0.02841,-0.41097,9.87967,6,3,0.6
23.732,2732374.151,-0.02363,-0.41097,9.87488,6,3,0.6
23.75,2732374.17,-0.01884,-0.40857,9.87727,6,3,0.6
23.767,2732374.189,-0.02124,-0.40618,9.87488,6,3,0.6
23.784,2732374.208,0.0003,-0.40618,9.87967,6,3,0.6
23.805,2732374.227,-0.00927,-0.42054,9.87967,6,3,0.6
23.825,2732374.246,-0.01884,-0.41815,9.87249,6,3,0.6
23.842,2732374.265,-0.00927,-0.40857,9.88684,6,3,0.6
23.861,2732374.284,-0.00927,-0.41336,9.87488,6,3,0.6
23.884,2732374.303,-0.01406,-0.41336,9.87249,6,3,0.6
23.905,2732374.322,-0.01645,-0.40379,9.88684,6,3,0.6
23.922,2732374.341,-0.01167,-0.41336,9.87009,6,3,0.6
23.941,2732374.36,-0.02363,-0.41575,9.88206,6,3,0.6
23.956,2732374.379,-0.01884,-0.41815,9.87249,6,3,0.6
23.976,2732374.398,-0.00688,-0.41336,9.88684,6,3,0.6
23.999,2732374.417,-0.02363,-0.42532,9.87249,6,3,0.6
24.018,2732374.436,-0.02602,-0.40379,9.87967,6,3,0.6
24.034,2732374.455,-0.01884,-0.41336,9.87009,6,3,0.6
24.052,2732374.474,-0.02363,-0.42293,9.88924,6,3,0.6
24.073,2732374.493,-0.01884,-0.40618,9.87249,6,3,0.6
24.09,2732374.512,-0.01406,-0.40618,9.87249,6,3,0.6
24.109,2732374.531,-0.01884,-0.40618,9.87249,6,3,0.6
24.129,2732374.55,-0.02124,-0.40857,9.87249,6,3,0.6
24.148,2732374.569,-0.02124,-0.40618,9.87488,6,3,0.6
24.165,2732374.588,-0.01884,-0.42293,9.88445,6,3,0.6
24.184,2732374.607,-0.01167,-0.41097,9.87727,6,3,0.6
24.202,2732374.626,-0.01884,-0.40857,9.89163,6,3,0.6
24.224,2732374.645,-0.01406,-0.41575,9.86531,6,3,0.6
24.24,2732374.664,-0.01645,-0.40618,9.88684,6,3,0.6
24.264,2732374.683,-0.01884,-0.41097,9.88206,6,3,0.6
24.286,2732374.702,-0.02363,-0.40379,9.87727,6,3,0.6
24.301,2732374.721,-0.01645,-0.41097,9.87967,6,3,0.6
24.323,2732374.74,-0.01884,-0.40857,9.87727,6,3,0.6
24.339,2732374.759,-0.02124,-0.40857,9.87488,6,3,0.6
24.358,2732374.778,-0.02602,-0.41336,9.87249,6,3,0.6
24.375,2732374.797,-0.01884,-0.41815,9.87488,6,3,0.6
24.396,2732374.816,-0.01884,-0.40379,9.87249,6,3,0.6
24.413,2732374.835,-0.02841,-0.41097,9.87727,6,3,0.6
24.437,2732374.855,-0.01884,-0.40618,9.87967,6,3,0.6
24.451,2732374.874,-0.01645,-0.40857,9.88206,6,3,0.6
24.472,2732374.893,-0.01884,-0.40618,9.88445,6,3,0.6
24.489,2732374.912,-0.02124,-0.41097,9.87009,6,3,0.6
24.511,2732374.931,-0.01167,-0.4014,9.87967,6,3,0.6
24.53,2732374.95,-0.01167,-0.41336,9.87249,6,3,0.6
24.551,2732374.969,-0.02602,-0.41097,9.88684,6,3,0.6
24.568,2732374.988,-0.02363,-0.41575,9.87727,6,3,0.6
24.585,2732375.007,-0.01167,-0.41575,9.86292,6,3,0.6
24.603,2732375.026,-0.01645,-0.41336,9.88206,6,3,0.6
24.622,2732375.045,-0.02363,-0.40857,9.86292,6,3,0.6
24.641,2732375.064,-0.01406,-0.41575,9.88445,6,3,0.6
24.662,2732375.083,-0.02124,-0.40618,9.87488,6,3,0.6
24.68,2732375.102,-0.01884,-0.41575,9.88445,6,3,0.6
24.7,2732375.121,-0.02363,-0.41336,9.87488,6,3,0.6
24.724,2732375.14,-0.01406,-0.41815,9.87967,6,3,0.6
24.741,2732375.159,-0.02124,-0.40379,9.88684,6,3,0.6
24.759,2732375.178,-0.01406,-0.41575,9.87009,6,3,0.6
24.775,2732375.197,-0.02124,-0.41336,9.88445,6,3,0.6
24.798,2732375.216,-0.0332,-0.42054,9.87967,6,3,0.6
24.813,2732375.235,-0.01406,-0.40618,9.8677,6,3,0.6
24.836,2732375.254,-0.01884,-0.40379,9.88206,6,3,0.6
24.855,2732375.273,-0.01406,-0.41097,9.87488,6,3,0.6
24.872,2732375.292,-0.01645,-0.40857,9.88206,6,3,0.6
24.889,2732375.311,-0.02363,-0.41815,9.87249,6,3,0.6
24.912,2732375.33,-0.02602,-0.41575,9.87967,6,3,0.6
24.932,2732375.349,-0.01167,-0.41097,9.87009,6,3,0.6
24.95,2732375.368,-0.00927,-0.40857,9.87488,6,3,0.6
24.964,2732375.387,-0.01406,-0.40379,9.87249,6,3,0.6
24.983,2732375.406,-0.02124,-0.40618,9.87727,6,3,0.6
25.002,2732375.425,-0.02841,-0.41336,9.87727,6,3,0.6
25.023,2732375.444,-0.02124,-0.41575,9.87009,6,3,0.6
25.042,2732375.463,-0.02124,-0.41815,9.87967,6,3,0.6
25.061,2732375.482,-0.01645,-0.42054,9.87488,6,3,0.6
25.08,2732375.501,-0.03081,-0.41097,9.87009,6,3,0.6
25.106,2732375.52,-0.01645,-0.40857,9.89163,6,3,0.6
25.117,2732375.539,-0.0332,-0.41575,9.8677,6,3,0.6
25.136,2732375.558,-0.03081,-0.40379,9.88445,6,3,0.6
25.154,2732375.577,-0.01884,-0.42293,9.87249,6,3,0.6
25.174,2732375.596,-0.02363,-0.41336,9.87009,6,3,0.6
25.193,2732375.615,-0.02363,-0.399,9.88684,6,3,0.6
25.212,2732375.634,-0.01406,-0.41575,9.87009,6,3,0.6
25.233,2732375.653,-0.02363,-0.41336,9.88445,6,3,0.6
25.249,2732375.672,-0.02124,-0.40857,9.87967,6,3,0.6
25.272,2732375.691,-0.01645,-0.4014,9.88206,6,3,0.6
25.288,2732375.71,-0.01406,-0.41336,9.87249,6,3,0.6
25.308,2732375.729,-0.02124,-0.41575,9.87488,6,3,0.6
25.327,2732375.749,-0.01884,-0.41815,9.87249,6,3,0.6
25.345,2732375.768,-0.01645,-0.42054,9.88206,6,3,0.6
25.366,2732375.787,-0.02602,-0.39661,9.87009,6,3,0.6
25.382,2732375.806,-0.02124,-0.41575,9.87488,6,3,0.6
25.401,2732375.825,-0.02602,-0.41575,9.88445,6,3,0.6
25.422,2732375.844,-0.01884,-0.40618,9.87488,6,3,0.6
25.44,2732375.863,-0.01645,-0.42293,9.87967,6,3,0.6
25.463,2732375.882,-0.01645,-0.40618,9.88924,6,3,0.6
25.478,2732375.901,-0.01645,-0.41336,9.87249,6,3,0.6
25.499,2732375.92,-0.00927,-0.42293,9.88924,6,3,0.6
25.516,2732375.939,-0.01406,-0.42532,9.8677,6,3,0.6
25.535,2732375.958,-0.02841,-0.399,9.88206,6,3,0.6
25.554,2732375.977,-0.01884,-0.40379,9.87249,6,3,0.6
25.574,2732375.996,-0.02363,-0.41097,9.87727,6,3,0.6
25.592,2732376.015,-0.01167,-0.41815,9.87727,6,3,0.6
25.612,2732376.034,-0.02363,-0.40618,9.87967,6,3,0.6
25.633,2732376.053,-0.00927,-0.40618,9.87488,6,3,0.6
25.652,2732376.072,-0.02124,-0.41575,9.88206,6,3,0.6
25.668,2732376.091,-0.01645,-0.41575,9.87727,6,3,0.6
25.686,2732376.11,-0.01645,-0.40857,9.87967,6,3,0.6
25.707,2732376.129,-0.01884,-0.4014,9.87967,6,3,0.6
25.726,2732376.148,-0.02602,-0.42054,9.88206,6,3,0.6
25.746,2732376.167,-0.00688,-0.399,9.87488,6,3,0.6
25.763,2732376.186,-0.01645,-0.41815,9.88684,6,3,0.6
25.781,2732376.205,-0.02124,-0.41815,9.87488,6,3,0.6
25.801,2732376.224,-0.01406,-0.4014,9.87727,6,3,0.6
25.824,2732376.243,-0.01645,-0.41336,9.87727,6,3,0.6
25.841,2732376.262,-0.03081,-0.41097,9.87488,6,3,0.6
25.858,2732376.281,-0.01884,-0.40618,9.87967,6,3,0.6
25.88,2732376.3,-0.00927,-0.39422,9.89163,6,3,0.6
25.896,2732376.319,-0.01645,-0.41336,9.87727,6,3,0.6
25.919,2732376.338,-0.02124,-0.40857,9.88445,6,3,0.6
25.936,2732376.357,-0.01884,-0.41575,9.87727,6,3,0.6
25.954,2732376.376,-0.02363,-0.42532,9.87488,6,3,0.6
25.973,2732376.395,-0.00927,-0.41575,9.88445,6,3,0.6
25.992,2732376.414,-0.00449,-0.41336,9.87249,6,3,0.6
26.014,2732376.433,-0.02841,-0.41336,9.87967,6,3,0.6
26.034,2732376.452,-0.01167,-0.40857,9.87488,6,3,0.6
26.053,2732376.471,-0.01406,-0.41575,9.87967,6,3,0.6
26.068,2732376.49,-0.02124,-0.41815,9.88206,6,3,0.6
26.089,2732376.509,-0.00449,-0.41336,9.87727,6,3,0.6
26.108,2732376.528,-0.01645,-0.41575,9.87488,6,3,0.6
26.125,2732376.547,-0.02124,-0.41336,9.87727,6,3,0.6
26.144,2732376.566,-0.01645,-0.42293,9.88206,6,3,0.6
26.162,2732376.585,-0.00927,-0.40857,9.88924,6,3,0.6
26.18,2732376.604,-0.02363,-0.41815,9.87009,6,3,0.6
26.201,2732376.623,-0.02124,-0.41336,9.87967,6,3,0.6
26.222,2732376.643,-0.02841,-0.42532,9.87009,6,3,0.6
26.239,2732376.662,-0.02841,-0.41097,9.87249,6,3,0.6
26.258,2732376.681,-0.02841,-0.4014,9.87967,6,3,0.6
26.278,2732376.7,-0.03559,-0.4014,9.87727,6,3,0.6
26.296,2732376.719,-0.01645,-0.41097,9.88206,6,3,0.6
26.315,2732376.738,-0.02124,-0.42054,9.86292,6,3,0.6
26.337,2732376.757,-0.02602,-0.41575,9.88445,6,3,0.6
26.355,2732376.776,-0.00449,-0.42054,9.87488,6,3,0.6
26.372,2732376.795,-0.01645,-0.41575,9.88684,6,3,0.6
26.393,2732376.814,-0.01645,-0.42772,9.88206,6,3,0.6
26.409,2732376.833,-0.01884,-0.41575,9.8677,6,3,0.6
26.429,2732376.852,-0.02602,-0.42054,9.88684,6,3,0.6
26.448,2732376.871,-0.01645,-0.41336,9.8677,6,3,0.6
26.468,2732376.89,-0.02363,-0.40618,9.87727,6,3,0.6
26.486,2732376.909,-0.01406,-0.41336,9.87009,6,3,0.6
26.504,2732376.928,-0.01645,-0.41336,9.87249,6,3,0.6
26.524,2732376.947,-0.02841,-0.41336,9.88445,6,3,0.6
26.544,2732376.966,-0.00927,-0.42054,9.87009,6,3,0.6
26.562,2732376.985,-0.00927,-0.42054,9.88206,6,3,0.6
26.585,2732377.004,-0.02363,-0.41336,9.87967,6,3,0.6
26.607,2732377.023,-0.02124,-0.40857,9.88206,6,3,0.6
26.625,2732377.042,-0.0332,-0.42293,9.88445,6,3,0.6
26.641,2732377.061,-0.02363,-0.41575,9.87488,6,3,0.6
26.657,2732377.08,-0.01645,-0.41815,9.88924,6,3,0.6
26.676,2732377.099,-0.01406,-0.42293,9.87249,6,3,0.6
26.699,2732377.118,-0.01645,-0.41815,9.88206,6,3,0.6
26.715,2732377.137,-0.02363,-0.40857,9.87967,6,3,0.6
26.739,2732377.156,-0.02124,-0.41815,9.88924,6,3,0.6
26.754,2732377.175,-0.02363,-0.40857,9.87249,6,3,0.6
26.77,2732377.194,-0.01884,-0.42054,9.87249,6,3,0.6
26.79,2732377.213,-0.02124,-0.41815,9.87727,6,3,0.6
26.81,2732377.232,-0.02841,-0.40857,9.87967,6,3,0.6
26.832,2732377.251,-0.02124,-0.42054,9.87967,6,3,0.6
26.852,2732377.27,-0.02841,-0.41336,9.87249,6,3,0.6
26.87,2732377.289,-0.01884,-0.41336,9.87727,6,3,0.6
26.885,2732377.308,-0.02124,-0.41575,9.87967,6,3,0.6
26.903,2732377.327,-0.01645,-0.41336,9.88206,6,3,0.6
26.925,2732377.346,-0.01167,-0.41336,9.87009,6,3,0.6
26.944,2732377.365,-0.01406,-0.4014,9.87009,6,3,0.6
26.961,2732377.384,-0.01645,-0.41575,9.87009,6,3,0.6
26.982,2732377.403,-0.00927,-0.42054,9.87967,6,3,0.6
27.005,2732377.422,-0.01645,-0.41815,9.87727,6,3,0.6
27.023,2732377.441,-0.01406,-0.42054,9.87967,6,3,0.6
27.039,2732377.46,-0.01645,-0.40618,9.87249,6,3,0.6
27.057,2732377.479,-0.01167,-0.41575,9.87009,6,3,0.6
27.076,2732377.498,-0.01645,-0.41097,9.87727,6,3,0.6
27.095,2732377.517,-0.01406,-0.41575,9.87967,6,3,0.6
27.115,2732377.537,-0.01167,-0.40379,9.8677,6,3,0.6
27.133,2732377.556,-0.00688,-0.41575,9.87488,6,3,0.6
27.151,2732377.575,-0.02363,-0.41097,9.87249,6,3,0.6
27.17,2732377.594,-0.00927,-0.41815,9.87727,6,3,0.6
27.19,2732377.613,-0.01406,-0.40379,9.87727,6,3,0.6
27.209,2732377.632,-0.01645,-0.40857,9.8677,6,3,0.6
27.229,2732377.651,-0.01406,-0.39661,9.87967,6,3,0.6
27.248,2732377.67,-0.02363,-0.41336,9.88206,6,3,0.6
27.266,2732377.689,-0.00927,-0.4014,9.87727,6,3,0.6
27.285,2732377.708,-0.01884,-0.42054,9.88206,6,3,0.6
27.306,2732377.727,-0.01884,-0.40379,9.87727,6,3,0.6
27.323,2732377.746,-0.00688,-0.40618,9.88684,6,3,0.6
27.342,2732377.765,-0.01884,-0.40618,9.87009,6,3,0.6
27.361,2732377.784,-0.02602,-0.41575,9.88445,6,3,0.6
27.382,2732377.803,-0.01167,-0.41575,9.87488,6,3,0.6
27.4,2732377.822,-0.01645,-0.39661,9.88206,6,3,0.6
27.42,2732377.841,-0.01645,-0.41575,9.87967,6,3,0.6
27.441,2732377.86,-0.03081,-0.40857,9.87727,6,3,0.6
27.458,2732377.879,-0.02363,-0.42293,9.87727,6,3,0.6
27.477,2732377.898,-0.02602,-0.40618,9.87488,6,3,0.6
27.502,2732377.917,-0.02124,-0.39422,9.88684,6,3,0.6
27.527,2732377.936,-0.01645,-0.40618,9.87249,6,3,0.6
27.533,2732377.955,-0.00927,-0.40857,9.87727,6,3,0.6
27.551,2732377.974,-0.00449,-0.40618,9.87967,6,3,0.6
27.571,2732377.993,-0.02124,-0.41097,9.86531,6,3,0.6
27.59,2732378.012,-0.01406,-0.42054,9.87727,6,3,0.6
27.609,2732378.031,-0.01645,-0.41336,9.87249,6,3,0.6
27.629,2732378.05,-0.01884,-0.41097,9.87967,6,3,0.6
27.647,2732378.069,-0.01884,-0.39661,9.87249,6,3,0.6
27.666,2732378.088,-0.01406,-0.40379,9.87967,6,3,0.6
27.684,2732378.107,-0.01406,-0.4014,9.87009,6,3,0.6
27.706,2732378.126,-0.03081,-0.41815,9.87967,6,3,0.6
27.724,2732378.145,-0.00688,-0.41575,9.87967,6,3,0.6
27.741,2732378.164,-0.02124,-0.41097,9.87727,6,3,0.6
27.762,2732378.183,-0.01167,-0.41575,9.88684,6,3,0.6
27.784,2732378.202,-0.01884,-0.41815,9.86292,6,3,0.6
27.804,2732378.221,-0.01884,-0.41336,9.88684,6,3,0.6
27.822,2732378.24,-0.02124,-0.41815,9.87967,6,3,0.6
27.842,2732378.259,-0.01884,-0.40857,9.87727,6,3,0.6
27.854,2732378.278,-0.01645,-0.41815,9.88684,6,3,0.6
27.875,2732378.297,-0.01645,-0.40618,9.87009,6,3,0.6
27.894,2732378.316,-0.01167,-0.42054,9.87967,6,3,0.6
27.913,2732378.335,-0.00927,-0.40379,9.87009,6,3,0.6
27.932,2732378.354,-0.02363,-0.41336,9.87488,6,3,0.6
27.951,2732378.373,-0.02363,-0.40857,9.88206,6,3,0.6
27.97,2732378.392,-0.02124,-0.41575,9.86292,6,3,0.6
27.988,2732378.411,-0.01884,-0.39182,9.89163,6,3,0.6
28.008,2732378.43,-0.02363,-0.41097,9.87009,6,3,0.6
28.031,2732378.45,-0.01645,-0.41815,9.88684,6,3,0.6
28.051,2732378.469,-0.02124,-0.41575,9.87727,6,3,0.6
28.064,2732378.488,-0.01884,-0.41097,9.87009,6,3,0.6
28.088,2732378.507,-0.01406,-0.41336,9.87488,6,3,0.6
28.105,2732378.526,-0.02124,-0.41815,9.88684,6,3,0.6
28.122,2732378.545,-0.01884,-0.40618,9.87488,6,3,0.6
28.141,2732378.564,-0.01645,-0.40857,9.87488,6,3,0.6
28.16,2732378.583,-0.00927,-0.40857,9.87727,6,3,0.6
28.18,2732378.602,-0.02363,-0.40857,9.8677,6,3,0.6
28.199,2732378.621,-0.02363,-0.399,9.88445,6,3,0.6
28.22,2732378.64,-0.02124,-0.42054,9.87727,6,3,0.6
28.24,2732378.659,-0.02363,-0.40379,9.87249,6,3,0.6
28.258,2732378.678,-0.01406,-0.40379,9.88445,6,3,0.6
28.275,2732378.697,-0.01645,-0.41575,9.87249,6,3,0.6
28.298,2732378.716,-0.02124,-0.41575,9.88445,6,3,0.6
28.312,2732378.735,-0.01884,-0.42054,9.87488,6,3,0.6
28.337,2732378.754,-0.02124,-0.40857,9.87249,6,3,0.6
28.354,2732378.773,-0.01645,-0.40618,9.88684,6,3,0.6
28.373,2732378.792,-0.01884,-0.41097,9.87009,6,3,0.6
28.388,2732378.811,-0.02124,-0.42054,9.87967,6,3,0.6
28.408,2732378.83,-0.01645,-0.41575,9.87249,6,3,0.6
28.427,2732378.849,-0.00927,-0.42532,9.87249,6,3,0.6
28.446,2732378.868,-0.01645,-0.42532,9.87249,6,3,0.6
28.464,2732378.887,-0.00927,-0.42054,9.87009,6,3,0.6
28.485,2732378.906,-0.02124,-0.41815,9.87488,6,3,0.6
28.506,2732378.925,-0.01645,-0.41575,9.8677,6,3,0.6
28.523,2732378.944,-0.02124,-0.41097,9.87967,6,3,0.6
28.541,2732378.963,-0.01645,-0.41336,9.88206,6,3,0.6
28.56,2732378.982,-0.02124,-0.41815,9.87488,6,3,0.6
28.583,2732379.001,-0.01884,-0.41815,9.87249,6,3,0.6
28.602,2732379.02,-0.00688,-0.41815,9.87249,6,3,0.6
28.618,2732379.039,-0.01884,-0.42293,9.88445,6,3,0.6
28.639,2732379.058,-0.02363,-0.40857,9.87249,6,3,0.6
28.654,2732379.077,-0.03081,-0.40618,9.87488,6,3,0.6
28.674,2732379.096,-0.02841,-0.41097,9.87249,6,3,0.6
28.693,2732379.115,-0.02363,-0.40857,9.88924,6,3,0.6
28.713,2732379.134,-0.02124,-0.40857,9.87009,6,3,0.6
28.73,2732379.153,-0.02602,-0.41097,9.88684,6,3,0.6
28.751,2732379.172,-0.01884,-0.39661,9.87488,6,3,0.6
28.769,2732379.191,-0.01645,-0.41336,9.87009,6,3,0.6
28.788,2732379.21,-0.01406,-0.41815,9.87967,6,3,0.6
28.807,2732379.229,-0.01645,-0.41097,9.87967,6,3,0.6
28.828,2732379.248,-0.01645,-0.41097,9.88445,6,3,0.6
28.844,2732379.267,-0.02124,-0.41575,9.87488,6,3,0.6
28.864,2732379.286,-0.02124,-0.42054,9.87009,6,3,0.6
28.884,2732379.305,-0.00927,-0.42772,9.88924,6,3,0.6
28.907,2732379.324,-0.00449,-0.40618,9.87009,6,3,0.6
28.924,2732379.344,-0.02124,-0.41336,9.87967,6,3,0.6
28.941,2732379.363,-0.01645,-0.41575,9.87249,6,3,0.6
28.959,2732379.382,-0.01645,-0.4014,9.88206,6,3,0.6
28.982,2732379.401,-0.01167,-0.42532,9.87009,6,3,0.6
29.002,2732379.42,-0.01406,-0.41097,9.88684,6,3,0.6
29.02,2732379.439,-0.02363,-0.40857,9.87727,6,3,0.6
29.04,2732379.458,-0.01406,-0.41336,9.87727,6,3,0.6
29.055,2732379.477,-0.01645,-0.41097,9.87727,6,3,0.6
29.074,2732379.496,-0.01645,-0.42054,9.87249,6,3,0.6
29.093,2732379.515,-0.01645,-0.42054,9.88924,6,3,0.6
29.112,2732379.534,-0.01167,-0.41575,9.87967,6,3,0.6
29.131,2732379.553,-0.02124,-0.41097,9.87249,6,3,0.6
29.149,2732379.572,-0.01884,-0.43011,9.87727,6,3,0.6
29.17,2732379.591,-0.02363,-0.42293,9.8677,6,3,0.6
29.186,2732379.61,-0.01406,-0.41097,9.88206,6,3,0.6
29.206,2732379.629,-0.02363,-0.42054,9.87727,6,3,0.6
29.226,2732379.648,-0.01884,-0.4014,9.88445,6,3,0.6
29.244,2732379.667,-0.02124,-0.41336,9.87249,6,3,0.6
29.262,2732379.686,-0.02124,-0.40857,9.87967,6,3,0.6
29.285,2732379.705,-0.01406,-0.41815,9.87488,6,3,0.6
29.302,2732379.724,-0.02602,-0.41336,9.87249,6,3,0.6
29.321,2732379.743,-0.02602,-0.41815,9.88445,6,3,0.6
29.341,2732379.762,-0.01406,-0.41336,9.87009,6,3,0.6
29.358,2732379.781,-0.03081,-0.40379,9.88445,6,3,0.6
29.378,2732379.8,-0.01645,-0.39661,9.87249,6,3,0.6
29.396,2732379.819,-0.01645,-0.42054,9.87727,6,3,0.6
29.416,2732379.838,-0.01884,-0.41097,9.87249,6,3,0.6
29.435,2732379.857,-0.02841,-0.41575,9.87488,6,3,0.6
29.453,2732379.876,-0.02602,-0.40618,9.87727,6,3,0.6
29.472,2732379.895,-0.01884,-0.42054,9.88206,6,3,0.6
29.491,2732379.914,-0.01884,-0.40618,9.8677,6,3,0.6
29.527,2732379.933,-0.02602,-0.41575,9.87727,6,3,0.6
29.529,2732379.952,-0.02363,-0.41097,9.87488,6,3,0.6
29.548,2732379.971,-0.01645,-0.40379,9.88445,6,3,0.6
29.567,2732379.99,-0.02363,-0.41575,9.87488,6,3,0.6
29.586,2732380.009,-0.01884,-0.41575,9.89163,6,3,0.6
29.605,2732380.028,-0.02602,-0.41097,9.8677,6,3,0.6
29.625,2732380.047,-0.02602,-0.41336,9.88924,6,3,0.6
29.644,2732380.066,-0.01645,-0.42532,9.87249,6,3,0.6
29.663,2732380.085,-0.02124,-0.40618,9.88684,6,3,0.6
29.681,2732380.104,-0.01645,-0.41575,9.87249,6,3,0.6
29.703,2732380.123,-0.01406,-0.41336,9.87727,6,3,0.6
29.723,2732380.142,-0.01645,-0.41097,9.87967,6,3,0.6
29.742,2732380.161,-0.01406,-0.41336,9.88206,6,3,0.6
29.759,2732380.18,-0.01884,-0.41097,9.87727,6,3,0.6
29.779,2732380.199,-0.02124,-0.40857,9.87009,6,3,0.6
29.802,2732380.218,-0.02602,-0.41097,9.88684,6,3,0.6
29.816,2732380.238,-0.01884,-0.41336,9.87249,6,3,0.6
29.838,2732380.257,-0.01645,-0.40857,9.87488,6,3,0.6
29.854,2732380.276,-0.02602,-0.41097,9.87967,6,3,0.6
29.874,2732380.295,-0.02124,-0.41336,9.87967,6,3,0.6
29.892,2732380.314,-0.01645,-0.42054,9.87967,6,3,0.6
29.91,2732380.333,-0.02602,-0.41815,9.87249,6,3,0.6
29.93,2732380.352,-0.00927,-0.40618,9.87009,6,3,0.6
29.949,2732380.371,-0.01167,-0.41575,9.89402,6,3,0.6
29.97,2732380.39,-0.01645,-0.40379,9.87009,6,3,0.6
29.987,2732380.409,-0.02124,-0.41575,9.87967,6,3,0.6
30.005,2732380.428,-0.02602,-0.41336,9.87249,6,3,0.6
30.025,2732380.447,-0.01167,-0.42054,9.87488,6,3,0.6
30.047,2732380.466,-0.02363,-0.41815,9.87727,6,3,0.6
30.062,2732380.485,-0.01645,-0.41336,9.87249,6,3,0.6
30.082,2732380.504,-0.01645,-0.40857,9.87009,6,3,0.6
30.108,2732380.523,-0.01645,-0.41097,9.87727,6,3,0.6
30.121,2732380.542,-0.02841,-0.41815,9.87488,6,3,0.6
30.139,2732380.561,-0.01645,-0.40379,9.87967,6,3,0.6
30.157,2732380.58,-0.01884,-0.41097,9.87727,6,3,0.6
30.176,2732380.599,-0.02363,-0.41097,9.88445,6,3,0.6
30.195,2732380.618,-0.01406,-0.40618,9.87967,6,3,0.6
30.215,2732380.637,-0.01645,-0.41097,9.87967,6,3,0.6
30.239,2732380.656,-0.01884,-0.41575,9.88206,6,3,0.6
30.254,2732380.675,-0.02363,-0.42532,9.88206,6,3,0.6
30.272,2732380.694,-0.01406,-0.41336,9.87249,6,3,0.6
30.291,2732380.713,-0.02363,-0.41097,9.87967,6,3,0.6
30.309,2732380.732,-0.01884,-0.41575,9.87009,6,3,0.6
30.332,2732380.751,-0.01884,-0.41336,9.87727,6,3,0.6
30.351,2732380.77,-0.01884,-0.41097,9.87488,6,3,0.6
30.366,2732380.789,-0.01645,-0.42054,9.87488,6,3,0.6
30.389,2732380.808,-0.02124,-0.41097,9.88445,6,3,0.6
30.405,2732380.827,-0.02602,-0.41575,9.87249,6,3,0.6
30.424,2732380.846,-0.00688,-0.41575,9.88206,6,3,0.6
30.442,2732380.865,-0.01645,-0.4014,9.88445,6,3,0.6
30.464,2732380.884,-0.02363,-0.41097,9.8677,6,3,0.6
30.481,2732380.903,-0.01406,-0.41097,9.88445,6,3,0.6
30.504,2732380.922,-0.01406,-0.4014,9.87249,6,3,0.6
30.523,2732380.941,-0.02124,-0.41336,9.87967,6,3,0.6
30.541,2732380.96,-0.02363,-0.40379,9.87488,6,3,0.6
30.557,2732380.979,-0.01645,-0.40379,9.87249,6,3,0.6
30.579,2732380.998,-0.01406,-0.41097,9.87967,6,3,0.6
30.596,2732381.017,-0.01884,-0.41097,9.87727,6,3,0.6
30.614,2732381.036,-0.02363,-0.40379,9.87727,6,3,0.6
30.633,2732381.055,-0.02602,-0.39661,9.87009,6,3,0.6
30.654,2732381.074,-0.01645,-0.41336,9.88206,6,3,0.6
30.67,2732381.093,-0.01645,-0.41336,9.8677,6,3,0.6
30.69,2732381.112,-0.02124,-0.42293,9.88445,6,3,0.6
30.709,2732381.132,-0.01167,-0.41336,9.88684,6,3,0.6
30.732,2732381.151,-0.01167,-0.42054,9.87488,6,3,0.6
30.747,2732381.17,-0.01884,-0.40618,9.87967,6,3,0.6
30.769,2732381.189,-0.02124,-0.41097,9.87967,6,3,0.6
30.785,2732381.208,-0.01406,-0.41575,9.88684,6,3,0.6
30.804,2732381.227,-0.02363,-0.41575,9.87967,6,3,0.6
30.824,2732381.246,-0.02602,-0.399,9.87249,6,3,0.6
30.844,2732381.265,-0.01884,-0.42054,9.88445,6,3,0.6
30.86,2732381.284,-0.02602,-0.41575,9.8677,6,3,0.6
30.881,2732381.303,-0.02602,-0.40618,9.88206,6,3,0.6
30.902,2732381.322,-0.03081,-0.40379,9.87009,6,3,0.6
30.919,2732381.341,-0.02363,-0.41336,9.88684,6,3,0.6
30.941,2732381.36,-0.02124,-0.41336,9.87967,6,3,0.6
30.956,2732381.379,-0.03081,-0.39661,9.87967,6,3,0.6
30.976,2732381.398,-0.01406,-0.40857,9.8677,6,3,0.6
30.999,2732381.417,-0.02124,-0.42293,9.87488,6,3,0.6
31.016,2732381.436,-0.01645,-0.41575,9.87967,6,3,0.6
31.033,2732381.455,-0.02363,-0.41815,9.87488,6,3,0.6
31.055,2732381.474,-0.03559,-0.41336,9.88445,6,3,0.6
31.069,2732381.493,-0.01645,-0.40618,9.87249,6,3,0.6
31.09,2732381.512,-0.01884,-0.41336,9.87727,6,3,0.6
31.109,2732381.531,-0.02602,-0.41575,9.87488,6,3,0.6
31.128,2732381.55,-0.02124,-0.41097,9.87249,6,3,0.6
31.147,2732381.569,-0.01645,-0.41097,9.87967,6,3,0.6
31.165,2732381.588,-0.01406,-0.40857,9.87727,6,3,0.6
31.184,2732381.607,-0.01406,-0.41097,9.88445,6,3,0.6
31.204,2732381.626,-0.01167,-0.41097,9.87488,6,3,0.6
31.222,2732381.645,-0.01645,-0.40618,9.88924,6,3,0.6
31.24,2732381.664,-0.01645,-0.40857,9.88684,6,3,0.6
31.264,2732381.683,-0.01645,-0.41815,9.87727,6,3,0.6
31.283,2732381.702,-0.02124,-0.41336,9.88924,6,3,0.6
31.301,2732381.721,-0.01884,-0.41815,9.88206,6,3,0.6
31.318,2732381.74,-0.02602,-0.40618,9.87967,6,3,0.6
31.34,2732381.759,-0.01884,-0.42054,9.86531,6,3,0.6
31.356,2732381.778,-0.01884,-0.41575,9.87967,6,3,0.6
31.375,2732381.797,-0.01884,-0.41815,9.86292,6,3,0.6
31.394,2732381.816,-0.01406,-0.40857,9.87488,6,3,0.6
31.414,2732381.835,-0.01645,-0.40618,9.88445,6,3,0.6
31.435,2732381.854,-0.02124,-0.41575,9.87967,6,3,0.6
31.452,2732381.873,-0.02124,-0.41336,9.88206,6,3,0.6
31.47,2732381.892,-0.02841,-0.41097,9.8677,6,3,0.6
31.49,2732381.911,-0.01406,-0.42532,9.87967,6,3,0.6
31.528,2732381.93,-0.01406,-0.42054,9.88684,6,3,0.6
31.529,2732381.949,-0.01645,-0.40857,9.87009,6,3,0.6
31.545,2732381.968,-0.01645,-0.41097,9.87488,6,3,0.6
31.565,2732381.987,-0.02124,-0.40618,9.88206,6,3,0.6
31.582,2732382.006,-0.02124,-0.40379,9.88684,6,3,0.6
31.603,2732382.026,-0.01884,-0.42054,9.87727,6,3,0.6
31.624,2732382.045,-0.01645,-0.41575,9.87727,6,3,0.6
31.64,2732382.064,-0.02841,-0.40857,9.87727,6,3,0.6
31.66,2732382.083,-0.02602,-0.40857,9.87967,6,3,0.6
31.679,2732382.102,-0.02363,-0.41336,9.87967,6,3,0.6
31.697,2732382.121,-0.01645,-0.41336,9.87967,6,3,0.6
31.717,2732382.14,-0.01406,-0.40857,9.88206,6,3,0.6
31.736,2732382.159,-0.01406,-0.41336,9.87967,6,3,0.6
31.754,2732382.178,-0.02124,-0.40618,9.88924,6,3,0.6
31.777,2732382.197,-0.02602,-0.40379,9.87967,6,3,0.6
31.793,2732382.216,-0.02602,-0.41097,9.87967,6,3,0.6
31.812,2732382.235,-0.02602,-0.42293,9.88445,6,3,0.6
31.832,2732382.254,-0.01884,-0.40618,9.87488,6,3,0.6
31.85,2732382.273,-0.02124,-0.42772,9.89163,6,3,0.6
31.87,2732382.292,-0.02602,-0.42293,9.88206,6,3,0.6
31.888,2732382.311,-0.02363,-0.41097,9.87727,6,3,0.6
31.908,2732382.33,-0.01884,-0.41815,9.87967,6,3,0.6
31.927,2732382.349,-0.02841,-0.39422,9.8677,6,3,0.6
31.945,2732382.368,-0.00449,-0.40857,9.88684,6,3,0.6
31.963,2732382.387,-0.01645,-0.41575,9.87009,6,3,0.6
31.982,2732382.406,-0.01645,-0.40618,9.88206,6,3,0.6
32.001,2732382.425,-0.02602,-0.42054,9.88445,6,3,0.6
32.021,2732382.444,-0.01645,-0.41575,9.88445,6,3,0.6
32.043,2732382.463,-0.02124,-0.42293,9.87727,6,3,0.6
32.06,2732382.482,-0.01406,-0.40857,9.87488,6,3,0.6
32.079,2732382.501,-0.02124,-0.40857,9.88206,6,3,0.6
32.098,2732382.52,-0.02124,-0.41575,9.87488,6,3,0.6
32.117,2732382.539,-0.02124,-0.4014,9.88445,6,3,0.6
32.135,2732382.558,-0.02602,-0.41097,9.87488,6,3,0.6
32.153,2732382.577,-0.01884,-0.41336,9.87488,6,3,0.6
32.173,2732382.596,-0.02363,-0.41815,9.88924,6,3,0.6
32.192,2732382.615,-0.01406,-0.40857,9.86531,6,3,0.6
32.212,2732382.634,-0.01884,-0.41815,9.88445,6,3,0.6
32.231,2732382.653,-0.01884,-0.41575,9.87967,6,3,0.6
32.249,2732382.672,-0.00688,-0.41097,9.87967,6,3,0.6
32.271,2732382.691,-0.02124,-0.41097,9.87727,6,3,0.6
32.288,2732382.71,-0.01884,-0.41575,9.87488,6,3,0.6
32.306,2732382.729,-0.02124,-0.41336,9.88445,6,3,0.6
32.326,2732382.748,-0.02124,-0.41815,9.86531,6,3,0.6
32.345,2732382.767,-0.01884,-0.41336,9.88206,6,3,0.6
32.364,2732382.786,-0.02124,-0.40857,9.87488,6,3,0.6
32.381,2732382.805,-0.03081,-0.41815,9.87488,6,3,0.6
32.4,2732382.824,-0.02841,-0.42054,9.87727,6,3,0.6
32.421,2732382.843,-0.02124,-0.41097,9.87488,6,3,0.6
32.441,2732382.862,-0.01645,-0.41097,9.88206,6,3,0.6
32.458,2732382.881,-0.02124,-0.41097,9.88206,6,3,0.6
32.482,2732382.9,-0.02124,-0.42293,9.88445,6,3,0.6
32.499,2732382.92,-0.01406,-0.40379,9.87249,6,3,0.6
32.515,2732382.939,-0.00927,-0.41097,9.88445,6,3,0.6
32.538,2732382.958,-0.02363,-0.40857,9.87727,6,3,0.6
32.553,2732382.977,-0.02602,-0.40857,9.87727,6,3,0.6
32.572,2732382.996,-0.01406,-0.41815,9.87727,6,3,0.6
32.593,2732383.015,-0.01884,-0.41575,9.87727,6,3,0.6
32.611,2732383.034,-0.01406,-0.40857,9.88206,6,3,0.6
32.631,2732383.053,-0.01645,-0.40379,9.87488,6,3,0.6
32.652,2732383.072,-0.02363,-0.41097,9.87727,6,3,0.6
32.667,2732383.091,-0.01167,-0.41815,9.87967,6,3,0.6
32.685,2732383.11,-0.01406,-0.41097,9.88206,6,3,0.6
32.705,2732383.129,-0.0332,-0.40857,9.87488,6,3,0.6
32.724,2732383.148,-0.01884,-0.43729,9.87488,6,3,0.6
32.744,2732383.167,-0.02363,-0.42293,9.87967,6,3,0.6
32.763,2732383.186,-0.01884,-0.41575,9.87009,6,3,0.6
32.781,2732383.205,-0.02124,-0.41815,9.89642,6,3,0.6
32.801,2732383.224,-0.01406,-0.42054,9.88684,6,3,0.6
32.821,2732383.243,-0.02124,-0.41097,9.87727,6,3,0.6
32.838,2732383.262,-0.01645,-0.42532,9.89163,6,3,0.6
32.861,2732383.281,-0.02841,-0.41336,9.87009,6,3,0.6
32.877,2732383.3,-0.01884,-0.41097,9.88206,6,3,0.6
32.898,2732383.319,-0.02124,-0.42772,9.88206,6,3,0.6
32.917,2732383.338,-0.02363,-0.42054,9.87967,6,3,0.6
32.934,2732383.357,-0.02363,-0.40857,9.88445,6,3,0.6
32.952,2732383.376,-0.01884,-0.41815,9.87727,6,3,0.6
32.972,2732383.395,-0.01884,-0.41336,9.88924,6,3,0.6
32.991,2732383.414,-0.03081,-0.42054,9.88206,6,3,0.6
33.013,2732383.433,-0.01406,-0.40857,9.88206,6,3,0.6
33.029,2732383.452,-0.01884,-0.42054,9.87488,6,3,0.6
33.049,2732383.471,-0.02124,-0.4014,9.88206,6,3,0.6
33.069,2732383.49,-0.03081,-0.41815,9.87967,6,3,0.6
33.09,2732383.509,-0.02124,-0.42054,9.88445,6,3,0.6
33.11,2732383.528,-0.01884,-0.41097,9.87727,6,3,0.6
33.124,2732383.547,-0.01645,-0.43011,9.87967,6,3,0.6
33.143,2732383.566,-0.02363,-0.41097,9.89163,6,3,0.6
33.162,2732383.585,-0.01884,-0.41815,9.86531,6,3,0.6
33.18,2732383.604,-0.01406,-0.40857,9.88445,6,3,0.6
33.202,2732383.623,-0.02363,-0.41336,9.87967,6,3,0.6
33.22,2732383.642,-0.02363,-0.40379,9.87967,6,3,0.6
33.239,2732383.661,-0.02841,-0.41815,9.87488,6,3,0.6
33.257,2732383.68,-0.02124,-0.41815,9.87488,6,3,0.6
33.278,2732383.699,-0.00927,-0.41575,9.87009,6,3,0.6
33.295,2732383.718,-0.0332,-0.41097,9.88445,6,3,0.6
33.314,2732383.737,-0.01167,-0.40618,9.88206,6,3,0.6
33.334,2732383.756,-0.02124,-0.42293,9.88206,6,3,0.6
33.354,2732383.775,-0.01406,-0.40618,9.87727,6,3,0.6
33.372,2732383.794,-0.01406,-0.40618,9.88206,6,3,0.6
33.391,2732383.814,-0.02363,-0.39661,9.87727,6,3,0.6
33.409,2732383.833,-0.02124,-0.40618,9.87967,6,3,0.6
33.429,2732383.852,-0.01645,-0.41097,9.87727,6,3,0.6
33.449,2732383.871,-0.02363,-0.41575,9.88206,6,3,0.6
33.467,2732383.89,-0.01884,-0.42054,9.87967,6,3,0.6
33.486,2732383.909,-0.03799,-0.40618,9.87727,6,3,0.6
33.527,2732383.928,-0.03081,-0.42532,9.88445,6,3,0.6
33.528,2732383.947,-0.02363,-0.41097,9.87488,6,3,0.6
33.542,2732383.966,-0.02363,-0.40857,9.88684,6,3,0.6
33.561,2732383.985,-0.02124,-0.41097,9.86531,6,3,0.6
33.58,2732384.004,-0.01645,-0.41336,9.89402,6,3,0.6
33.6,2732384.023,-0.01884,-0.41097,9.87009,6,3,0.6
33.621,2732384.042,-0.01884,-0.41575,9.87727,6,3,0.6
33.637,2732384.061,-0.01884,-0.42054,9.87009,6,3,0.6
33.657,2732384.08,-0.01884,-0.41575,9.87488,6,3,0.6
33.676,2732384.099,-0.01884,-0.41336,9.88445,6,3,0.6
33.695,2732384.118,-0.01645,-0.41815,9.87009,6,3,0.6
33.714,2732384.137,-0.02124,-0.41336,9.87488,6,3,0.6
33.733,2732384.156,-0.01406,-0.42054,9.87249,6,3,0.6
33.754,2732384.175,-0.01167,-0.41575,9.87249,6,3,0.6
33.773,2732384.194,-0.01406,-0.41815,9.88206,6,3,0.6
33.791,2732384.213,-0.02602,-0.42054,9.87488,6,3,0.6
33.809,2732384.232,-0.02363,-0.40857,9.87727,6,3,0.6
33.828,2732384.251,-0.01884,-0.40857,9.87727,6,3,0.6
33.848,2732384.27,-0.00927,-0.42054,9.88206,6,3,0.6
33.866,2732384.289,-0.02124,-0.40618,9.87727,6,3,0.6
33.886,2732384.308,-0.01884,-0.40618,9.87488,6,3,0.6
33.905,2732384.327,-0.01406,-0.42054,9.87727,6,3,0.6
33.925,2732384.346,-0.02124,-0.41575,9.88445,6,3,0.6
33.942,2732384.365,-0.01167,-0.41815,9.87488,6,3,0.6
33.961,2732384.384,-0.01167,-0.42054,9.87967,6,3,0.6
33.983,2732384.403,-0.01884,-0.40857,9.87727,6,3,0.6
34.003,2732384.422,-0.02602,-0.40379,9.88206,6,3,0.6
34.023,2732384.441,-0.01406,-0.41815,9.87249,6,3,0.6
34.041,2732384.46,-0.01167,-0.40618,9.87967,6,3,0.6
34.055,2732384.479,-0.01406,-0.41575,9.87009,6,3,0.6
34.076,2732384.498,-0.01884,-0.42054,9.87967,6,3,0.6
34.101,2732384.517,-0.01645,-0.41097,9.87727,6,3,0.6
34.115,2732384.536,-0.02124,-0.41575,9.88206,6,3,0.6
34.133,2732384.555,-0.01645,-0.41575,9.87727,6,3,0.6
34.151,2732384.574,-0.01406,-0.41336,9.88684,6,3,0.6
34.17,2732384.593,-0.01406,-0.41815,9.88206,6,3,0.6
34.189,2732384.612,-0.02363,-0.42293,9.87249,6,3,0.6
34.211,2732384.631,-0.02841,-0.40857,9.88445,6,3,0.6
34.232,2732384.65,-0.02602,-0.41097,9.87488,6,3,0.6
34.246,2732384.669,-0.02363,-0.42772,9.88206,6,3,0.6
34.266,2732384.688,-0.02602,-0.42532,9.87488,6,3,0.6
34.285,2732384.708,-0.03081,-0.41097,9.87488,6,3,0.6
34.305,2732384.727,-0.01645,-0.41575,9.87967,6,3,0.6
34.323,2732384.746,-0.02602,-0.40379,9.87488,6,3,0.6
34.343,2732384.765,-0.01645,-0.41336,9.88445,6,3,0.6
34.361,2732384.784,-0.01645,-0.40857,9.88445,6,3,0.6
34.382,2732384.803,-0.02124,-0.41815,9.87727,6,3,0.6
34.404,2732384.822,-0.01645,-0.41336,9.87967,6,3,0.6
34.421,2732384.841,-0.01884,-0.41815,9.8677,6,3,0.6
34.44,2732384.86,-0.01645,-0.41097,9.88924,6,3,0.6
34.456,2732384.879,-0.00688,-0.42532,9.87727,6,3,0.6
34.476,2732384.898,-0.01884,-0.41815,9.87488,6,3,0.6
34.499,2732384.917,-0.01645,-0.4325,9.87488,6,3,0.6
34.514,2732384.936,-0.01645,-0.40618,9.87967,6,3,0.6
34.535,2732384.955,-0.03081,-0.40618,9.87488,6,3,0.6
34.553,2732384.974,-0.02124,-0.41815,9.87727,6,3,0.6
34.57,2732384.993,-0.02841,-0.42054,9.88684,6,3,0.6
34.589,2732385.012,-0.00927,-0.42532,9.8677,6,3,0.6
34.609,2732385.031,-0.01406,-0.42532,9.89163,6,3,0.6
34.629,2732385.05,-0.01645,-0.41336,9.87249,6,3,0.6
34.651,2732385.069,-0.01884,-0.41097,9.88206,6,3,0.6
34.665,2732385.088,-0.01645,-0.41815,9.88445,6,3,0.6
34.684,2732385.107,-0.00688,-0.41336,9.87488,6,3,0.6
34.703,2732385.126,-0.02124,-0.40857,9.87967,6,3,0.6
34.722,2732385.145,-0.03081,-0.41336,9.87488,6,3,0.6
34.741,2732385.164,-0.01884,-0.41815,9.88206,6,3,0.6
34.761,2732385.183,-0.02124,-0.42532,9.87488,6,3,0.6
34.783,2732385.202,-0.02363,-0.41575,9.87488,6,3,0.6
34.803,2732385.221,-0.01406,-0.41097,9.88684,6,3,0.6
34.82,2732385.24,-0.01406,-0.41336,9.87249,6,3,0.6
34.842,2732385.259,-0.01884,-0.40857,9.88924,6,3,0.6
34.856,2732385.278,-0.01645,-0.41815,9.87249,6,3,0.6
34.875,2732385.297,-0.02363,-0.4325,9.88924,6,3,0.6
34.897,2732385.316,-0.03081,-0.41815,9.87249,6,3,0.6
34.916,2732385.335,-0.02602,-0.41815,9.88924,6,3,0.6
34.934,2732385.354,-0.02124,-0.41097,9.87488,6,3,0.6
34.952,2732385.373,-0.02363,-0.41815,9.88206,6,3,0.6
34.969,2732385.392,-0.01167,-0.40618,9.88206,6,3,0.6
34.992,2732385.411,-0.02124,-0.41575,9.88206,6,3,0.6
35.011,2732385.43,-0.02363,-0.41336,9.88206,6,3,0.6
35.027,2732385.449,-0.02841,-0.42532,9.87727,6,3,0.6
35.049,2732385.468,-0.01645,-0.41575,9.87249,6,3,0.6
35.065,2732385.487,-0.01406,-0.42293,9.87249,6,3,0.6
35.082,2732385.506,-0.02124,-0.41815,9.87488,6,3,0.6
35.108,2732385.525,-0.01884,-0.41097,9.88206,6,3,0.6
35.121,2732385.544,-0.00927,-0.40379,9.87967,6,3,0.6
35.141,2732385.563,-0.01406,-0.41097,9.88206,6,3,0.6
35.16,2732385.582,-0.01406,-0.41336,9.87727,6,3,0.6
35.179,2732385.601,-0.00927,-0.40618,9.88206,6,3,0.6
35.199,2732385.621,-0.01884,-0.41097,9.87727,6,3,0.6
35.219,2732385.64,-0.01884,-0.42054,9.87009,6,3,0.6
35.236,2732385.659,-0.02124,-0.40618,9.88924,6,3,0.6
35.258,2732385.678,-0.01884,-0.41097,9.87727,6,3,0.6
35.275,2732385.697,-0.02124,-0.42293,9.89163,6,3,0.6
35.294,2732385.716,-0.02602,-0.40857,9.87488,6,3,0.6
35.315,2732385.735,-0.01645,-0.41575,9.87488,6,3,0.6
35.333,2732385.754,-0.01167,-0.41097,9.87967,6,3,0.6
35.353,2732385.773,-0.01167,-0.42532,9.87249,6,3,0.6
35.37,2732385.792,-0.01167,-0.41336,9.87967,6,3,0.6
35.389,2732385.811,-0.01645,-0.40618,9.87488,6,3,0.6
35.409,2732385.83,-0.01884,-0.41336,9.88684,6,3,0.6
35.427,2732385.849,-0.01884,-0.41815,9.88206,6,3,0.6
35.445,2732385.868,-0.00449,-0.4014,9.87488,6,3,0.6
35.463,2732385.887,-0.01406,-0.42293,9.88206,6,3,0.6
35.482,2732385.906,-0.01884,-0.42293,9.87249,6,3,0.6
35.531,2732385.925,-0.02363,-0.40618,9.88684,6,3,0.6
35.532,2732385.944,-0.01645,-0.40618,9.87488,6,3,0.6
35.54,2732385.963,-0.01884,-0.41815,9.87727,6,3,0.6
35.558,2732385.982,-0.01884,-0.41815,9.87967,6,3,0.6
35.579,2732386.001,-0.01167,-0.40379,9.87727,6,3,0.6
35.598,2732386.02,-0.02124,-0.40379,9.88206,6,3,0.6
35.618,2732386.039,-0.03081,-0.41336,9.87009,6,3,0.6
35.636,2732386.058,-0.01884,-0.41097,9.87727,6,3,0.6
35.655,2732386.077,-0.02124,-0.41575,9.88445,6,3,0.6
35.674,2732386.096,-0.02363,-0.42293,9.87488,6,3,0.6
35.693,2732386.115,-0.02602,-0.41097,9.87488,6,3,0.6
35.712,2732386.134,-0.00927,-0.41336,9.88206,6,3,0.6
35.735,2732386.153,-0.01884,-0.41097,9.88206,6,3,0.6
35.754,2732386.172,-0.01645,-0.42054,9.8677,6,3,0.6
35.768,2732386.191,-0.01645,-0.42293,9.88206,6,3,0.6
35.787,2732386.21,-0.03081,-0.41575,9.8677,6,3,0.6
35.806,2732386.229,-0.02124,-0.42293,9.88445,6,3,0.6
35.825,2732386.248,-0.02124,-0.42293,9.87249,6,3,0.6
35.845,2732386.267,-0.01406,-0.41097,9.87727,6,3,0.6
35.863,2732386.286,-0.02124,-0.41097,9.87727,6,3,0.6
35.882,2732386.305,-0.01884,-0.41097,9.88684,6,3,0.6
35.905,2732386.324,-0.02363,-0.40618,9.87249,6,3,0.6
35.921,2732386.343,-0.02363,-0.4325,9.87727,6,3,0.6
35.941,2732386.362,-0.01884,-0.41815,9.88924,6,3,0.6
35.959,2732386.381,-0.02124,-0.42054,9.8677,6,3,0.6
35.979,2732386.4,-0.01884,-0.40857,9.88684,6,3,0.6
35.996,2732386.419,-0.00688,-0.39661,9.87249,6,3,0.6
36.017,2732386.438,-0.01406,-0.41336,9.8677,6,3,0.6
36.036,2732386.457,-0.01884,-0.40379,9.88206,6,3,0.6
36.058,2732386.476,-0.02602,-0.41336,9.87249,6,3,0.6
36.074,2732386.495,-0.02124,-0.40618,9.88684,6,3,0.6
36.092,2732386.515,-0.02363,-0.42293,9.88206,6,3,0.6
36.111,2732386.534,-0.01406,-0.43011,9.87009,6,3,0.6
36.13,2732386.553,-0.01884,-0.41815,9.89163,6,3,0.6
36.149,2732386.572,-0.01645,-0.41575,9.87249,6,3,0.6
36.168,2732386.591,-0.01884,-0.41097,9.87727,6,3,0.6
36.186,2732386.61,-0.01884,-0.40857,9.87967,6,3,0.6
36.207,2732386.629,-0.01645,-0.41097,9.87249,6,3,0.6
36.225,2732386.648,-0.03799,-0.41815,9.87727,6,3,0.6
36.247,2732386.667,-0.01645,-0.42293,9.88206,6,3,0.6
36.262,2732386.686,-0.01406,-0.42772,9.87249,6,3,0.6
36.284,2732386.705,-0.01167,-0.41815,9.88206,6,3,0.6
36.302,2732386.724,-0.01645,-0.41336,9.87009,6,3,0.6
36.32,2732386.743,-0.01167,-0.40857,9.87488,6,3,0.6
36.34,2732386.762,-0.02602,-0.40618,9.88924,6,3,0.6
36.358,2732386.781,-0.01645,-0.4014,9.87009,6,3,0.6
36.378,2732386.8,-0.02124,-0.42054,9.88445,6,3,0.6
36.396,2732386.819,-0.02124,-0.41336,9.88445,6,3,0.6
36.417,2732386.838,-0.02602,-0.41336,9.87488,6,3,0.6
36.44,2732386.857,-0.01884,-0.40618,9.87967,6,3,0.6
36.456,2732386.876,-0.01884,-0.399,9.8677,6,3,0.6
36.473,2732386.895,-0.01167,-0.41575,9.87488,6,3,0.6
36.495,2732386.914,-0.01406,-0.42054,9.87967,6,3,0.6
36.515,2732386.933,-0.01645,-0.40618,9.87967,6,3,0.6
36.533,2732386.952,-0.01645,-0.41575,9.88445,6,3,0.6
36.55,2732386.971,-0.01645,-0.40857,9.87488,6,3,0.6
36.567,2732386.99,-0.01167,-0.41097,9.87967,6,3,0.6
36.585,2732387.009,-0.01884,-0.41575,9.87967,6,3,0.6
36.606,2732387.028,-0.01884,-0.39422,9.87009,6,3,0.6
36.624,2732387.047,-0.01406,-0.4014,9.87967,6,3,0.6
36.643,2732387.066,-0.01645,-0.42054,9.87727,6,3,0.6
36.661,2732387.085,-0.01406,-0.41097,9.87967,6,3,0.6
36.681,2732387.104,-0.02124,-0.41815,9.87009,6,3,0.6
36.7,2732387.123,-0.01884,-0.40857,9.88684,6,3,0.6
36.719,2732387.142,-0.02124,-0.40857,9.86052,6,3,0.6
36.739,2732387.161,-0.01884,-0.42054,9.88445,6,3,0.6
36.758,2732387.18,-0.02841,-0.41815,9.88206,6,3,0.6
36.78,2732387.199,-0.01406,-0.42532,9.87488,6,3,0.6
36.797,2732387.218,-0.01884,-0.40857,9.88445,6,3,0.6
36.816,2732387.237,-0.01645,-0.41097,9.87727,6,3,0.6
36.838,2732387.256,-0.02124,-0.42293,9.88924,6,3,0.6
36.856,2732387.275,-0.02124,-0.41097,9.86531,6,3,0.6
36.872,2732387.294,-0.01884,-0.42054,9.87727,6,3,0.6
36.893,2732387.313,-0.02841,-0.42532,9.87249,6,3,0.6
36.91,2732387.332,-0.02124,-0.41336,9.88445,6,3,0.6
36.933,2732387.351,-0.02841,-0.40379,9.86531,6,3,0.6
36.948,2732387.37,-0.01167,-0.40857,9.87967,6,3,0.6
36.968,2732387.389,-0.01406,-0.41815,9.87727,6,3,0.6
36.986,2732387.409,-0.02363,-0.40857,9.87249,6,3,0.6
37.006,2732387.428,-0.01884,-0.41336,9.87727,6,3,0.6
37.025,2732387.447,-0.02124,-0.42054,9.87009,6,3,0.6
37.043,2732387.466,-0.01645,-0.42532,9.87727,6,3,0.6
37.062,2732387.485,-0.01645,-0.41097,9.87249,6,3,0.6
37.082,2732387.504,-0.01645,-0.41336,9.87967,6,3,0.6
37.105,2732387.523,-0.01884,-0.42054,9.88924,6,3,0.6
37.12,2732387.542,-0.02363,-0.42054,9.87009,6,3,0.6
37.138,2732387.561,-0.01645,-0.42532,9.87967,6,3,0.6
37.156,2732387.58,-0.02363,-0.42293,9.87249,6,3,0.6
37.178,2732387.599,-0.02363,-0.41336,9.87488,6,3,0.6
37.195,2732387.618,-0.02602,-0.42054,9.87967,6,3,0.6
37.214,2732387.637,-0.00688,-0.42532,9.87967,6,3,0.6
37.234,2732387.656,-0.01645,-0.42293,9.87488,6,3,0.6
37.252,2732387.675,-0.01406,-0.41097,9.88445,6,3,0.6
37.273,2732387.694,-0.01406,-0.41097,9.87488,6,3,0.6
37.294,2732387.713,-0.01406,-0.41336,9.88684,6,3,0.6
37.314,2732387.732,-0.01884,-0.40618,9.88684,6,3,0.6
37.328,2732387.751,-0.03081,-0.41815,9.87009,6,3,0.6
37.351,2732387.77,-0.02124,-0.41336,9.88684,6,3,0.6
37.367,2732387.789,-0.01406,-0.40857,9.88206,6,3,0.6
37.389,2732387.808,-0.01167,-0.40857,9.87488,6,3,0.6
37.406,2732387.827,-0.01645,-0.41575,9.88924,6,3,0.6
37.425,2732387.846,-0.01884,-0.41575,9.86531,6,3,0.6
37.442,2732387.865,-0.02363,-0.40379,9.88684,6,3,0.6
37.464,2732387.884,-0.01645,-0.41815,9.87488,6,3,0.6
37.482,2732387.903,-0.00927,-0.42293,9.87727,6,3,0.6
37.502,2732387.922,-0.02124,-0.41575,9.87967,6,3,0.6
37.528,2732387.941,-0.01884,-0.41575,9.87249,6,3,0.6
37.537,2732387.96,-0.00688,-0.42054,9.88445,6,3,0.6
37.555,2732387.979,-0.01884,-0.41336,9.87009,6,3,0.6
37.576,2732387.998,-0.02363,-0.40857,9.88445,6,3,0.6
37.595,2732388.017,-0.01645,-0.40379,9.88445,6,3,0.6
37.614,2732388.036,-0.02602,-0.42772,9.87967,6,3,0.6
37.634,2732388.055,-0.01884,-0.41815,9.87727,6,3,0.6
37.651,2732388.074,-0.01406,-0.41336,9.87727,6,3,0.6
37.672,2732388.093,-0.02124,-0.41575,9.88445,6,3,0.6
37.689,2732388.112,-0.01884,-0.40618,9.87967,6,3,0.6
37.708,2732388.131,-0.02602,-0.41097,9.87009,6,3,0.6
37.729,2732388.15,-0.02124,-0.42293,9.87727,6,3,0.6
37.747,2732388.169,-0.01645,-0.42293,9.87727,6,3,0.6
37.766,2732388.188,-0.01406,-0.42054,9.87727,6,3,0.6
37.785,2732388.207,-0.03081,-0.41575,9.87249,6,3,0.6
37.804,2732388.226,-0.01406,-0.41815,9.87727,6,3,0.6
37.823,2732388.245,-0.01406,-0.41575,9.87009,6,3,0.6
37.843,2732388.264,-0.01645,-0.41336,9.88206,6,3,0.6
37.861,2732388.283,-0.01645,-0.42293,9.87727,6,3,0.6
37.881,2732388.303,-0.01884,-0.41336,9.87249,6,3,0.6
37.902,2732388.322,-0.00927,-0.41575,9.88445,6,3,0.6
37.918,2732388.341,-0.01406,-0.41097,9.88206,6,3,0.6
37.94,2732388.36,-0.02363,-0.41097,9.87727,6,3,0.6
37.955,2732388.379,-0.02602,-0.42054,9.87727,6,3,0.6
37.975,2732388.398,-0.01167,-0.42054,9.87009,6,3,0.6
37.998,2732388.417,-0.03081,-0.41097,9.88445,6,3,0.6
38.017,2732388.436,-0.01884,-0.41575,9.87967,6,3,0.6
38.035,2732388.455,-0.02602,-0.41815,9.88684,6,3,0.6
38.054,2732388.474,-0.01645,-0.41097,9.87488,6,3,0.6
38.07,2732388.493,-0.02841,-0.40857,9.87967,6,3,0.6
38.092,2732388.512,-0.01884,-0.42772,9.87488,6,3,0.6
38.111,2732388.531,-0.01406,-0.40379,9.87249,6,3,0.6
38.128,2732388.55,-0.02363,-0.41815,9.87967,6,3,0.6
38.147,2732388.569,-0.01884,-0.42293,9.87488,6,3,0.6
38.164,2732388.588,-0.02363,-0.41097,9.87967,6,3,0.6
38.183,2732388.607,-0.01406,-0.42293,9.8677,6,3,0.6
38.207,2732388.626,-0.00927,-0.40857,9.87967,6,3,0.6
38.223,2732388.645,-0.01167,-0.41815,9.87488,6,3,0.6
38.242,2732388.664,-0.01884,-0.41815,9.88206,6,3,0.6
38.265,2732388.683,-0.03081,-0.41097,9.87249,6,3,0.6
38.285,2732388.702,-0.02602,-0.41336,9.89163,6,3,0.6
38.299,2732388.721,-0.01167,-0.40857,9.87488,6,3,0.6
38.32,2732388.74,-0.01406,-0.41097,9.87967,6,3,0.6
38.336,2732388.759,-0.02602,-0.40857,9.88924,6,3,0.6
38.355,2732388.778,-0.00927,-0.41575,9.86531,6,3,0.6
38.375,2732388.797,-0.00927,-0.42532,9.87967,6,3,0.6
38.394,2732388.816,-0.03799,-0.41097,9.87488,6,3,0.6
38.413,2732388.835,-0.02602,-0.42054,9.87488,6,3,0.6
38.431,2732388.854,-0.02363,-0.41336,9.88684,6,3,0.6
38.45,2732388.873,-0.01167,-0.41815,9.87249,6,3,0.6
38.472,2732388.892,-0.01167,-0.42532,9.88445,6,3,0.6
38.489,2732388.911,-0.01406,-0.40857,9.8677,6,3,0.6
38.512,2732388.93,-0.02363,-0.41336,9.87967,6,3,0.6
38.527,2732388.949,-0.01884,-0.41336,9.87009,6,3,0.6
38.549,2732388.968,-0.00688,-0.41815,9.87488,6,3,0.6
38.565,2732388.987,-0.00927,-0.41097,9.87727,6,3,0.6
38.583,2732389.006,-0.01167,-0.40379,9.87249,6,3,0.6
38.606,2732389.025,-0.01884,-0.42772,9.87009,6,3,0.6
38.622,2732389.044,-0.00688,-0.41575,9.86531,6,3,0.6
38.642,2732389.063,-0.03081,-0.41097,9.88445,6,3,0.6
38.662,2732389.082,-0.01645,-0.41575,9.87249,6,3,0.6
38.68,2732389.101,-0.01884,-0.41575,9.88445,6,3,0.6
38.699,2732389.12,-0.00927,-0.41575,9.87727,6,3,0.6
38.718,2732389.139,-0.01884,-0.40379,9.87488,6,3,0.6
38.739,2732389.158,-0.02124,-0.41336,9.88684,6,3,0.6
38.757,2732389.177,-0.01167,-0.40857,9.87009,6,3,0.6
38.775,2732389.197,-0.01884,-0.41097,9.88206,6,3,0.6
38.794,2732389.216,-0.00927,-0.41097,9.87727,6,3,0.6
38.816,2732389.235,-0.02363,-0.4014,9.87488,6,3,0.6
38.831,2732389.254,-0.02124,-0.41575,9.87488,6,3,0.6
38.85,2732389.273,-0.01645,-0.4325,9.8677,6,3,0.6
38.869,2732389.292,-0.01645,-0.42054,9.88684,6,3,0.6
38.888,2732389.311,-0.01884,-0.40618,9.87488,6,3,0.6
38.909,2732389.33,-0.01884,-0.41336,9.88206,6,3,0.6
38.93,2732389.349,-0.01406,-0.41815,9.87009,6,3,0.6
38.946,2732389.368,-0.00927,-0.41336,9.87249,6,3,0.6
38.964,2732389.387,-0.01645,-0.42293,9.86531,6,3,0.6
38.983,2732389.406,-0.01406,-0.41097,9.87249,6,3,0.6
39.004,2732389.425,-0.01645,-0.40618,9.87249,6,3,0.6
39.022,2732389.444,-0.01645,-0.41336,9.87967,6,3,0.6
39.042,2732389.463,-0.01167,-0.42293,9.87249,6,3,0.6
39.06,2732389.482,-0.01645,-0.42054,9.88684,6,3,0.6
39.079,2732389.501,-0.01406,-0.40857,9.87488,6,3,0.6
39.105,2732389.52,-0.01645,-0.399,9.87488,6,3,0.6
39.117,2732389.539,-0.01645,-0.42054,9.87249,6,3,0.6
39.136,2732389.558,-0.02602,-0.41575,9.87727,6,3,0.6
39.154,2732389.577,-0.02841,-0.42293,9.8677,6,3,0.6
39.174,2732389.596,-0.01406,-0.41097,9.87967,6,3,0.6
39.192,2732389.615,-0.01884,-0.42293,9.87727,6,3,0.6
39.212,2732389.634,-0.01884,-0.43011,9.87727,6,3,0.6
39.23,2732389.653,-0.01406,-0.42293,9.89163,6,3,0.6
39.251,2732389.672,-0.01884,-0.41336,9.87488,6,3,0.6
39.273,2732389.691,-0.01645,-0.42054,9.87249,6,3,0.6
39.288,2732389.71,-0.01167,-0.40857,9.87967,6,3,0.6
39.306,2732389.729,-0.02363,-0.42532,9.88206,6,3,0.6
39.326,2732389.748,-0.02124,-0.41097,9.87488,6,3,0.6
39.345,2732389.767,-0.00927,-0.42532,9.88206,6,3,0.6
39.363,2732389.786,-0.01167,-0.41575,9.87009,6,3,0.6
39.381,2732389.805,-0.02602,-0.41815,9.87488,6,3,0.6
39.406,2732389.824,-0.01406,-0.41815,9.88206,6,3,0.6
39.42,2732389.843,-0.02124,-0.41575,9.8677,6,3,0.6
39.441,2732389.862,-0.01167,-0.41097,9.87488,6,3,0.6
39.459,2732389.881,-0.01645,-0.41336,9.87249,6,3,0.6
39.483,2732389.9,-0.01884,-0.41815,9.87488,6,3,0.6
39.501,2732389.919,-0.02363,-0.40857,9.88684,6,3,0.6
39.527,2732389.938,-0.02124,-0.42532,9.87249,6,3,0.6
39.535,2732389.957,-0.01884,-0.41336,9.88206,6,3,0.6
39.553,2732389.976,-0.01167,-0.40857,9.87249,6,3,0.6
39.572,2732389.995,-0.02363,-0.40379,9.87967,6,3,0.6
39.592,2732390.014,-0.01884,-0.40857,9.88206,6,3,0.6
39.61,2732390.033,-0.01884,-0.42293,9.88206,6,3,0.6
39.63,2732390.052,-0.01406,-0.42293,9.88206,6,3,0.6
39.648,2732390.071,-0.03559,-0.41575,9.87249,6,3,0.6
39.668,2732390.091,-0.00688,-0.41097,9.87727,6,3,0.6
39.686,2732390.11,-0.01645,-0.41336,9.87727,6,3,0.6
39.706,2732390.129,-0.01645,-0.41815,9.87727,6,3,0.6
39.726,2732390.148,-0.01884,-0.41336,9.87727,6,3,0.6
39.749,2732390.167,-0.00927,-0.41575,9.88206,6,3,0.6
39.763,2732390.186,-0.02124,-0.40618,9.88684,6,3,0.6
39.783,2732390.205,-0.01645,-0.41336,9.87488,6,3,0.6
39.801,2732390.224,-0.01884,-0.40857,9.88684,6,3,0.6
39.822,2732390.243,-0.00927,-0.41815,9.87009,6,3,0.6
39.84,2732390.262,-0.01884,-0.42772,9.88684,6,3,0.6
39.858,2732390.281,-0.02363,-0.42293,9.88445,6,3,0.6
39.882,2732390.3,-0.02124,-0.42054,9.87727,6,3,0.6
39.9,2732390.319,-0.01884,-0.42054,9.88206,6,3,0.6
39.918,2732390.338,-0.01884,-0.41336,9.87249,6,3,0.6
39.938,2732390.357,-0.02363,-0.41815,9.88684,6,3,0.6
39.953,2732390.376,-0.02602,-0.42054,9.87009,6,3,0.6
39.973,2732390.395,-0.02124,-0.41575,9.87727,6,3,0.6
39.992,2732390.414,-0.01406,-0.41336,9.87249,6,3,0.6
40.011,2732390.433,-0.02841,-0.41815,9.87249,6,3,0.6
40.034,2732390.452,-0.02841,-0.41336,9.88206,6,3,0.6
40.051,2732390.471,-0.01406,-0.41097,9.87967,6,3,0.6
40.068,2732390.49,-0.01884,-0.40618,9.87727,6,3,0.6
40.092,2732390.509,-0.01406,-0.41575,9.88445,6,3,0.6
40.106,2732390.528,-0.02124,-0.42293,9.87967,6,3,0.6
40.125,2732390.547,-0.01406,-0.40379,9.88206,6,3,0.6
40.144,2732390.566,-0.01167,-0.42293,9.88684,6,3,0.6
40.162,2732390.585,-0.01645,-0.41575,9.88684,6,3,0.6
40.181,2732390.604,-0.02841,-0.42532,9.87967,6,3,0.6
40.203,2732390.623,-0.00688,-0.41575,9.87727,6,3,0.6
40.22,2732390.642,-0.01645,-0.40857,9.88684,6,3,0.6
40.239,2732390.661,-0.02602,-0.41575,9.87488,6,3,0.6
40.257,2732390.68,-0.01645,-0.42293,9.87249,6,3,0.6
40.277,2732390.699,-0.01884,-0.42054,9.88206,6,3,0.6
40.296,2732390.718,-0.02124,-0.40857,9.87967,6,3,0.6
40.315,2732390.737,-0.01167,-0.41097,9.87488,6,3,0.6
40.335,2732390.756,-0.01645,-0.42293,9.87488,6,3,0.6
40.352,2732390.775,-0.01645,-0.40857,9.87249,6,3,0.6
40.372,2732390.794,-0.02363,-0.42054,9.88445,6,3,0.6
40.391,2732390.813,-0.01645,-0.41575,9.88206,6,3,0.6
40.413,2732390.832,-0.02602,-0.41336,9.87009,6,3,0.6
40.429,2732390.851,-0.01645,-0.41097,9.88684,6,3,0.6
40.448,2732390.87,-0.01645,-0.41575,9.87967,6,3,0.6
40.466,2732390.889,-0.00688,-0.41336,9.88684,6,3,0.6
40.485,2732390.908,-0.01406,-0.42054,9.87727,6,3,0.6
40.505,2732390.927,-0.00688,-0.41336,9.8677,6,3,0.6
40.524,2732390.946,-0.02363,-0.40618,9.88445,6,3,0.6
40.543,2732390.965,-0.01406,-0.40618,9.86052,6,3,0.6
40.56,2732390.985,-0.02363,-0.40379,9.88445,6,3,0.6
40.584,2732391.004,-0.01406,-0.41097,9.87009,6,3,0.6
40.605,2732391.023,-0.00927,-0.41097,9.88684,6,3,0.6
40.623,2732391.042,-0.02124,-0.41336,9.87009,6,3,0.6
40.639,2732391.061,-0.0332,-0.41575,9.87967,6,3,0.6
40.656,2732391.08,-0.02124,-0.42532,9.88206,6,3,0.6
40.676,2732391.099,-0.01406,-0.4325,9.87967,6,3,0.6
40.696,2732391.118,-0.03559,-0.42772,9.88206,6,3,0.6
40.714,2732391.137,-0.01406,-0.42054,9.87488,6,3,0.6
40.738,2732391.156,-0.01645,-0.41097,9.87967,6,3,0.6
40.756,2732391.175,-0.01645,-0.42054,9.87488,6,3,0.6
40.772,2732391.194,-0.01167,-0.41336,9.88206,6,3,0.6
40.791,2732391.213,-0.01645,-0.41575,9.87249,6,3,0.6
40.811,2732391.232,-0.00688,-0.40618,9.87727,6,3,0.6
40.828,2732391.251,-0.00927,-0.41336,9.89163,6,3,0.6
40.851,2732391.27,-0.01645,-0.4014,9.87009,6,3,0.6
40.87,2732391.289,-0.01406,-0.41097,9.89163,6,3,0.6
40.886,2732391.308,-0.00927,-0.399,9.87967,6,3,0.6
40.903,2732391.327,-0.01645,-0.41575,9.87009,6,3,0.6
40.924,2732391.346,-0.01167,-0.40857,9.87967,6,3,0.6
40.941,2732391.365,-0.01406,-0.40618,9.87249,6,3,0.6
40.96,2732391.384,-0.01406,-0.41815,9.88445,6,3,0.6
40.985,2732391.403,-0.01884,-0.41336,9.8677,6,3,0.6
41.003,2732391.422,-0.01167,-0.42772,9.87488,6,3,0.6
41.019,2732391.441,-0.00927,-0.41336,9.87727,6,3,0.6
41.039,2732391.46,-0.02363,-0.41097,9.87967,6,3,0.6
41.056,2732391.479,-0.00927,-0.41815,9.87967,6,3,0.6
41.076,2732391.498,-0.02124,-0.41575,9.87727,6,3,0.6
41.094,2732391.517,-0.01167,-0.41336,9.87727,6,3,0.6
41.115,2732391.536,-0.01406,-0.42054,9.88206,6,3,0.6
41.133,2732391.555,-0.02124,-0.40379,9.88684,6,3,0.6
41.152,2732391.574,-0.01645,-0.399,9.86531,6,3,0.6
41.17,2732391.593,-0.01645,-0.40379,9.88206,6,3,0.6
41.19,2732391.612,-0.01884,-0.41815,9.87249,6,3,0.6
41.21,2732391.631,-0.01884,-0.41815,9.87488,6,3,0.6
41.228,2732391.65,-0.02124,-0.42532,9.88445,6,3,0.6
41.247,2732391.669,-0.01645,-0.42054,9.87488,6,3,0.6
41.266,2732391.688,-0.02602,-0.41575,9.89163,6,3,0.6
41.284,2732391.707,-0.01645,-0.42532,9.87488,6,3,0.6
41.303,2732391.726,-0.01645,-0.42532,9.88445,6,3,0.6
41.323,2732391.745,-0.02363,-0.41575,9.87967,6,3,0.6
41.341,2732391.764,-0.01884,-0.41815,9.87249,6,3,0.6
41.362,2732391.783,-0.01406,-0.42772,9.87727,6,3,0.6
41.383,2732391.802,-0.01406,-0.42293,9.87727,6,3,0.6
41.401,2732391.821,-0.02124,-0.41336,9.87009,6,3,0.6
41.422,2732391.84,-0.02124,-0.4349,9.87967,6,3,0.6
41.437,2732391.859,-0.02124,-0.43011,9.87249,6,3,0.6
41.455,2732391.878,-0.02124,-0.42772,9.87249,6,3,0.6
41.475,2732391.898,-0.02124,-0.41575,9.87249,6,3,0.6
41.51,2732391.917,-0.02602,-0.41575,9.88684,6,3,0.6
41.539,2732391.936,-0.01167,-0.42054,9.87967,6,3,0.6
41.54,2732391.955,-0.01406,-0.40857,9.88684,6,3,0.6
41.551,2732391.974,-0.02363,-0.41336,9.87249,6,3,0.6
41.569,2732391.993,-0.01884,-0.41575,9.88206,6,3,0.6
41.589,2732392.012,-0.01167,-0.40857,9.87967,6,3,0.6
41.609,2732392.031,-0.01645,-0.41097,9.88445,6,3,0.6
41.629,2732392.05,-0.01645,-0.41336,9.88206,6,3,0.6
41.647,2732392.069,-0.01884,-0.41815,9.87967,6,3,0.6
41.664,2732392.088,-0.02363,-0.42532,9.87727,6,3,0.6
41.683,2732392.107,-0.02841,-0.42054,9.87009,6,3,0.6
41.703,2732392.126,-0.02602,-0.42054,9.87967,6,3,0.6
41.722,2732392.145,-0.02124,-0.41336,9.88684,6,3,0.6
41.741,2732392.164,-0.01884,-0.41336,9.87009,6,3,0.6
41.762,2732392.183,-0.02841,-0.41575,9.88206,6,3,0.6
41.778,2732392.202,-0.02363,-0.41575,9.87009,6,3,0.6
41.801,2732392.221,-0.01406,-0.40857,9.88684,6,3,0.6
41.82,2732392.24,-0.02363,-0.42054,9.87009,6,3,0.6
41.836,2732392.259,-0.00449,-0.42054,9.87727,6,3,0.6
41.854,2732392.278,-0.02363,-0.42772,9.88206,6,3,0.6
41.876,2732392.297,-0.01884,-0.40857,9.8677,6,3,0.6
41.894,2732392.316,-0.01167,-0.41097,9.88206,6,3,0.6
41.914,2732392.335,-0.01645,-0.41815,9.87967,6,3,0.6
41.936,2732392.354,-0.01645,-0.41336,9.88206,6,3,0.6
41.951,2732392.373,-0.01645,-0.42054,9.87967,6,3,0.6
41.969,2732392.392,-0.01884,-0.40857,9.87967,6,3,0.6
41.991,2732392.411,-0.03081,-0.41575,9.87249,6,3,0.6
42.012,2732392.43,-0.02363,-0.41575,9.87488,6,3,0.6
42.027,2732392.449,-0.01884,-0.41575,9.88206,6,3,0.6
42.049,2732392.468,-0.02363,-0.41336,9.86531,6,3,0.6
42.064,2732392.487,-0.01884,-0.41336,9.88445,6,3,0.6
42.083,2732392.506,-0.01645,-0.42293,9.87249,6,3,0.6
42.105,2732392.525,-0.01406,-0.43011,9.87727,6,3,0.6
42.121,2732392.544,-0.00927,-0.41815,9.87967,6,3,0.6
42.141,2732392.563,-0.02124,-0.42054,9.87727,6,3,0.6
42.161,2732392.582,-0.0332,-0.40857,9.87488,6,3,0.6
42.179,2732392.601,-0.01884,-0.41815,9.87727,6,3,0.6
42.198,2732392.62,-0.01884,-0.42293,9.88206,6,3,0.6
42.218,2732392.639,-0.01167,-0.42293,9.87967,6,3,0.6
42.236,2732392.658,-0.01884,-0.41815,9.87488,6,3,0.6
42.253,2732392.677,-0.01406,-0.40857,9.87009,6,3,0.6
42.274,2732392.696,-0.01884,-0.399,9.88684,6,3,0.6
42.293,2732392.715,-0.02602,-0.40857,9.87727,6,3,0.6
42.313,2732392.734,-0.01884,-0.43011,9.87727,6,3,0.6
42.331,2732392.753,-0.01167,-0.41097,9.88684,6,3,0.6
42.354,2732392.772,-0.01645,-0.42772,9.86531,6,3,0.6
42.373,2732392.792,-0.02124,-0.4014,9.87488,6,3,0.6
42.388,2732392.811,-0.02124,-0.40618,9.87967,6,3,0.6
42.41,2732392.83,-0.01406,-0.40618,9.87727,6,3,0.6
42.43,2732392.849,-0.01884,-0.41575,9.88445,6,3,0.6
42.445,2732392.868,-0.01645,-0.41336,9.8677,6,3,0.6
42.464,2732392.887,-0.03081,-0.42772,9.87249,6,3,0.6
42.484,2732392.906,-0.01406,-0.41575,9.87249,6,3,0.6
42.505,2732392.925,-0.01406,-0.42054,9.87727,6,3,0.6
42.523,2732392.944,-0.02602,-0.41097,9.87727,6,3,0.6
42.541,2732392.963,-0.00927,-0.41815,9.87727,6,3,0.6
42.559,2732392.982,-0.01406,-0.42293,9.87727,6,3,0.6
42.582,2732393.001,-0.01645,-0.41336,9.87967,6,3,0.6
42.602,2732393.02,-0.01645,-0.40857,9.86531,6,3,0.6
42.62,2732393.039,-0.01884,-0.41097,9.87009,6,3,0.6
42.64,2732393.058,-0.01645,-0.42772,9.88445,6,3,0.6
42.656,2732393.077,-0.02124,-0.42293,9.87488,6,3,0.6
42.674,2732393.096,-0.01645,-0.42054,9.87009,6,3,0.6
42.692,2732393.115,-0.01884,-0.42054,9.88684,6,3,0.6
42.712,2732393.134,-0.02363,-0.41336,9.87249,6,3,0.6
42.73,2732393.153,-0.02124,-0.41815,9.87488,6,3,0.6
42.753,2732393.172,-0.02841,-0.41097,9.87727,6,3,0.6
42.769,2732393.191,-0.01884,-0.42054,9.87488,6,3,0.6
42.787,2732393.21,-0.00449,-0.42532,9.88924,6,3,0.6
42.807,2732393.229,-0.01406,-0.41575,9.86531,6,3,0.6
42.826,2732393.248,-0.01406,-0.42293,9.87488,6,3,0.6
42.845,2732393.267,-0.02841,-0.40379,9.87967,6,3,0.6
42.863,2732393.286,-0.01406,-0.40379,9.87727,6,3,0.6
42.881,2732393.305,-0.01884,-0.41815,9.87967,6,3,0.6
42.903,2732393.324,-0.01406,-0.40857,9.88924,6,3,0.6
42.923,2732393.343,-0.02602,-0.42054,9.87488,6,3,0.6
42.94,2732393.362,-0.02124,-0.42054,9.88445,6,3,0.6
42.961,2732393.381,-0.01167,-0.41336,9.87727,6,3,0.6
42.983,2732393.4,-0.01167,-0.42772,9.86531,6,3,0.6
43.0,2732393.419,-0.02363,-0.41575,9.88684,6,3,0.6
43.017,2732393.438,-0.01884,-0.41575,9.88445,6,3,0.6
43.038,2732393.457,-0.02363,-0.41336,9.87488,6,3,0.6
43.055,2732393.476,-0.02124,-0.41575,9.87967,6,3,0.6
43.072,2732393.495,-0.02363,-0.40379,9.8677,6,3,0.6
43.094,2732393.514,-0.02602,-0.42532,9.88684,6,3,0.6
43.111,2732393.533,-0.01884,-0.41575,9.87488,6,3,0.6
43.131,2732393.552,-0.01645,-0.41336,9.87009,6,3,0.6
43.149,2732393.571,-0.02363,-0.42293,9.87727,6,3,0.6
43.168,2732393.59,-0.02602,-0.41575,9.87488,6,3,0.6
43.186,2732393.609,-0.02602,-0.40618,9.87967,6,3,0.6
43.205,2732393.628,-0.01645,-0.42054,9.87488,6,3,0.6
43.226,2732393.647,-0.03081,-0.41336,9.87488,6,3,0.6
43.244,2732393.666,-0.01884,-0.42532,9.87727,6,3,0.6
43.261,2732393.686,-0.03081,-0.4325,9.87967,6,3,0.6
43.284,2732393.705,-0.02841,-0.40857,9.87488,6,3,0.6
43.306,2732393.724,-0.02602,-0.41336,9.89163,6,3,0.6
43.321,2732393.743,-0.02124,-0.42293,9.87727,6,3,0.6
43.34,2732393.762,-0.03081,-0.40857,9.8677,6,3,0.6
43.358,2732393.781,-0.01167,-0.42772,9.88206,6,3,0.6
43.379,2732393.8,-0.01406,-0.41336,9.8677,6,3,0.6
43.397,2732393.819,-0.02124,-0.40857,9.87967,6,3,0.6
43.415,2732393.838,-0.01884,-0.41575,9.87488,6,3,0.6
43.438,2732393.857,-0.01884,-0.42532,9.87967,6,3,0.6
43.456,2732393.876,-0.02602,-0.41815,9.8677,6,3,0.6
43.477,2732393.895,-0.01645,-0.40857,9.87488,6,3,0.6
43.491,2732393.914,-0.01167,-0.40618,9.87967,6,3,0.6
43.511,2732393.933,-0.01884,-0.41336,9.87488,6,3,0.6
43.528,2732393.952,-0.03081,-0.41336,9.89642,6,3,0.6
43.548,2732393.971,-0.01406,-0.42054,9.87967,6,3,0.6
