AppTimestamp(s),SensorTimestamp(s),Acc_X,Acc_Y,Acc_Z,Label,Latitude,Longitude
0.069,2724731.459,-0.00449,0.22582,9.72653,1,0,5.4
0.071,2724731.478,-0.04756,0.27846,9.36491,1,0,5.4
0.072,2724731.497,-0.05952,0.27607,9.52284,1,0,5.4
0.076,2724731.516,-0.00927,0.26889,9.72413,1,0,5.4
0.077,2724731.535,0.04576,0.25693,9.65205,1,0,5.4
0.091,2724731.554,0.04337,0.27368,10.47817,1,0,5.4
0.111,2724731.573,-0.01406,0.21147,9.9347,1,0,5.4
0.126,2724731.592,-0.06191,0.19232,10.01845,1,0,5.4
0.144,2724731.611,-0.05234,0.1995,9.8007,1,0,5.4
0.163,2724731.63,-0.00688,0.24257,9.81267,1,0,5.4
0.182,2724731.649,-0.00209,0.29521,9.80549,1,0,5.4
0.201,2724731.668,-0.01167,0.29761,9.87967,1,0,5.4
0.221,2724731.687,-0.02602,0.25454,9.78395,1,0,5.4
0.24,2724731.706,-0.04038,0.22822,9.58266,1,0,5.4
0.258,2724731.725,-0.08824,0.19232,9.61137,1,0,5.4
0.277,2724731.744,-0.05474,0.16839,9.79831,1,0,5.4
0.298,2724731.763,-0.00209,0.16361,9.94666,1,0,5.4
0.316,2724731.783,0.01226,0.12293,10.1357,1,0,5.4
0.337,2724731.802,-0.04756,0.0679,10.18834,1,0,5.4
0.356,2724731.821,-0.08824,0.0679,10.14766,1,0,5.4
0.374,2724731.84,-0.08106,0.08465,9.99691,1,0,5.4
0.392,2724731.859,-0.04277,0.09661,9.95624,1,0,5.4
0.413,2724731.878,-0.00927,0.12772,9.88924,1,0,5.4
0.431,2724731.897,-0.02363,0.15882,9.64008,1,0,5.4
0.45,2724731.916,-0.04277,0.16361,9.72892,1,0,5.4
0.469,2724731.935,-0.07388,0.14207,9.59462,1,0,5.4
0.488,2724731.954,-0.05474,0.12772,9.78395,1,0,5.4
0.507,2724731.973,-0.04277,0.10857,9.92274,1,0,5.4
0.527,2724731.992,-0.03559,0.08465,9.99691,1,0,5.4
0.545,2724732.011,-0.04756,0.07747,10.08545,1,0,5.4
0.563,2724732.03,-0.0667,0.07507,10.02802,1,0,5.4
0.583,2724732.049,-0.07388,0.07507,9.98256,1,0,5.4
0.601,2724732.068,-0.06191,0.09422,9.86052,1,0,5.4
0.621,2724732.087,-0.04756,0.11336,9.78395,1,0,5.4
0.641,2724732.106,-0.03799,0.13011,9.7361,1,0,5.4
0.657,2724732.125,-0.05234,0.12772,9.74327,1,0,5.4
0.678,2724732.144,-0.06191,0.11336,9.81506,1,0,5.4
0.697,2724732.163,-0.0667,0.099,9.88445,1,0,5.4
0.716,2724732.182,-0.04756,0.08704,9.95145,1,0,5.4
0.734,2724732.201,-0.04277,0.08225,9.98495,1,0,5.4
0.754,2724732.22,-0.05234,0.08704,9.97777,1,0,5.4
0.772,2724732.239,-0.06909,0.1014,9.91317,1,0,5.4
0.791,2724732.258,-0.05234,0.10857,9.86531,1,0,5.4
0.812,2724732.277,-0.04995,0.08943,9.81985,1,0,5.4
0.831,2724732.296,-0.04756,0.11097,9.79592,1,0,5.4
0.851,2724732.315,-0.05234,0.11097,9.81506,1,0,5.4
0.868,2724732.334,-0.04516,0.11575,9.84617,1,0,5.4
0.888,2724732.353,-0.05713,0.10618,9.89881,1,0,5.4
0.906,2724732.372,-0.05474,0.08943,9.92752,1,0,5.4
0.929,2724732.391,-0.04995,0.09182,9.94188,1,0,5.4
0.943,2724732.41,-0.05952,0.08943,9.92752,1,0,5.4
0.964,2724732.429,-0.04756,0.10618,9.89642,1,0,5.4
0.983,2724732.448,-0.04995,0.11336,9.85813,1,0,5.4
1.005,2724732.467,-0.05713,0.12054,9.83899,1,0,5.4
1.021,2724732.486,-0.05474,0.11097,9.84856,1,0,5.4
1.039,2724732.505,-0.05234,0.09661,9.85334,1,0,5.4
1.068,2724732.524,-0.06431,0.09661,9.87488,1,0,5.4
1.08,2724732.543,-0.05234,0.10379,9.91077,1,0,5.4
1.097,2724732.562,-0.06431,0.1014,9.91317,1,0,5.4
1.115,2724732.581,-0.05952,0.09661,9.91556,1,0,5.4
1.135,2724732.6,-0.04756,0.08943,9.88445,1,0,5.4
1.154,2724732.619,-0.05713,0.08943,9.87488,1,0,5.4
1.174,2724732.638,-0.05713,0.09422,9.85574,1,0,5.4
1.196,2724732.657,-0.05234,0.09422,9.84617,1,0,5.4
1.214,2724732.676,-0.04995,0.11336,9.85334,1,0,5.4
1.233,2724732.695,-0.04756,0.09422,9.88206,1,0,5.4
1.248,2724732.715,-0.05234,0.09182,9.89163,1,0,5.4
1.268,2724732.734,-0.05713,0.09422,9.89881,1,0,5.4
1.291,2724732.753,-0.05234,0.08704,9.89163,1,0,5.4
1.306,2724732.772,-0.06191,0.09422,9.88684,1,0,5.4
1.325,2724732.791,-0.05474,0.1014,9.88684,1,0,5.4
1.344,2724732.81,-0.05474,0.10857,9.8677,1,0,5.4
1.362,2724732.829,-0.0667,0.09661,9.86292,1,0,5.4
1.381,2724732.848,-0.06191,0.09661,9.87249,1,0,5.4
1.4,2724732.867,-0.05713,0.099,9.86531,1,0,5.4
1.424,2724732.886,-0.04516,0.09661,9.89402,1,0,5.4
1.438,2724732.905,-0.05474,0.10379,9.89163,1,0,5.4
1.46,2724732.924,-0.07149,0.09661,9.90599,1,0,5.4
1.477,2724732.943,-0.0667,0.09661,9.86531,1,0,5.4
1.5,2724732.962,-0.04516,0.08704,9.89163,1,0,5.4
1.517,2724732.981,-0.03081,0.09182,9.8677,1,0,5.4
1.534,2724733.0,-0.04038,0.09182,9.87249,1,0,5.4
1.554,2724733.019,-0.08345,0.10618,9.85813,1,0,5.4
1.575,2724733.038,-0.08345,0.09661,9.88206,1,0,5.4
1.594,2724733.057,-0.04995,0.08225,9.88206,1,0,5.4
1.61,2724733.076,-0.04038,0.08943,9.89642,1,0,5.4
1.633,2724733.095,-0.05234,0.09661,9.89163,1,0,5.4
1.648,2724733.114,-0.06909,0.1014,9.88684,1,0,5.4
1.669,2724733.133,-0.04516,0.15165,9.85334,1,0,5.4
1.688,2724733.152,0.00748,0.1325,9.91795,1,0,5.4
1.708,2724733.171,-0.00927,0.08704,9.80549,1,0,5.4
1.727,2724733.19,-0.15284,0.02213,9.94666,1,0,5.4
1.744,2724733.209,-0.26052,0.05085,9.85574,1,0,5.4
1.761,2724733.228,-0.14806,0.02213,9.89402,1,0,5.4
1.782,2724733.247,0.15583,0.12293,9.93949,1,0,5.4
1.801,2724733.266,0.12951,0.12772,9.86531,1,0,5.4
1.824,2724733.285,-0.09781,0.15404,9.9012,1,0,5.4
1.836,2724733.304,-0.22702,0.13011,9.8007,1,0,5.4
1.857,2724733.323,-0.07866,0.07507,9.86292,1,0,5.4
1.877,2724733.342,0.10798,0.05085,9.87967,1,0,5.4
1.899,2724733.361,-0.07149,0.04845,9.91077,1,0,5.4
1.917,2724733.38,-0.19831,0.09422,9.83659,1,0,5.4
1.934,2724733.399,-0.0667,0.15404,9.92991,1,0,5.4
1.955,2724733.418,0.04337,0.13729,9.89163,1,0,5.4
1.972,2724733.437,0.12712,0.09182,9.91795,1,0,5.4
1.994,2724733.456,-0.06431,0.09182,9.87967,1,0,5.4
2.013,2724733.475,-0.16481,0.07507,9.83181,1,0,5.4
2.03,2724733.494,0.15823,0.17079,9.83181,1,0,5.4
2.047,2724733.513,-0.14088,0.21386,9.97059,1,0,5.4
2.085,2724733.532,-0.32303,0.15643,9.80309,1,0,5.4
2.089,2724733.551,-0.31585,0.11336,9.84138,1,0,5.4
2.104,2724733.57,0.12233,0.19472,9.92274,1,0,5.4
2.123,2724733.589,0.25184,0.22104,9.81985,1,0,5.4
2.142,2724733.608,-0.1002,0.31196,9.98734,1,0,5.4
2.161,2724733.627,-0.43549,0.51057,9.75763,1,0,5.4
2.181,2724733.647,-0.44985,0.49143,9.9682,1,0,5.4
2.199,2724733.666,-0.25334,0.36221,9.90838,1,0,5.4
2.219,2724733.685,0.29731,0.27607,9.97299,1,0,5.4
2.237,2724733.704,0.4672,0.38136,9.80788,1,0,5.4
2.257,2724733.723,0.39302,0.33589,9.78395,1,0,5.4
2.277,2724733.742,-0.01406,0.39093,9.97538,1,0,5.4
2.295,2724733.761,-0.25813,0.33829,9.75763,1,0,5.4
2.314,2724733.78,-0.07627,0.30479,9.92274,1,0,5.4
2.333,2724733.799,0.38106,0.20189,9.85334,1,0,5.4
2.351,2724733.818,0.48873,0.13968,9.84617,1,0,5.4
2.37,2724733.837,0.30927,0.1349,9.86531,1,0,5.4
2.396,2724733.856,0.07687,0.14925,9.95384,1,0,5.4
2.409,2724733.875,-0.07866,0.1349,9.87727,1,0,5.4
2.428,2724733.894,-0.19113,-0.05922,9.97059,1,0,5.4
2.447,2724733.913,-0.25095,0.01496,9.84617,1,0,5.4
2.466,2724733.932,-0.20788,-0.00658,9.78635,1,0,5.4
2.484,2724733.951,-0.24138,-0.07358,9.97299,1,0,5.4
2.505,2724733.97,0.14626,-0.26979,9.74327,1,0,5.4
2.523,2724733.989,0.21326,-0.22433,10.1692,1,0,5.4
2.542,2724734.008,0.11515,-0.32243,9.73849,1,0,5.4
2.559,2724734.027,-0.19591,-0.15733,9.76242,1,0,5.4
2.579,2724734.046,-0.24138,-0.07597,9.80788,1,0,5.4
2.598,2724734.065,-0.25334,-0.03769,10.10938,1,0,5.4
2.616,2724734.084,-0.22702,-0.03769,9.83899,1,0,5.4
2.637,2724734.103,-0.19352,-0.08076,10.00888,1,0,5.4
2.661,2724734.122,-0.03081,-0.10469,9.61616,1,0,5.4
2.675,2724734.141,0.30927,-0.04726,9.93231,1,0,5.4
2.695,2724734.16,0.45284,0.0679,10.15245,1,0,5.4
2.712,2724734.179,0.49113,0.10618,9.74567,1,0,5.4
2.733,2724734.198,0.48873,0.20429,9.93231,1,0,5.4
2.751,2724734.217,0.62991,0.32871,9.79113,1,0,5.4
2.771,2724734.236,0.55334,0.33111,9.67867,1,0,5.4
2.789,2724734.255,0.36191,0.2665,10.14766,1,0,5.4
2.809,2724734.274,0.51984,0.23061,9.70499,1,0,5.4
2.827,2724734.293,0.38824,0.22582,9.72413,1,0,5.4
2.846,2724734.312,0.29013,0.15643,9.91795,1,0,5.4
2.864,2724734.331,-0.14327,0.18754,10.35374,1,0,5.4
2.885,2724734.35,-0.53599,0.23539,9.58026,1,0,5.4
2.903,2724734.369,-0.65563,0.3335,9.84617,1,0,5.4
2.923,2724734.388,-0.7657,0.14686,10.03281,1,0,5.4
2.941,2724734.407,-1.05553,0.3,9.81985,1,0,5.4
2.959,2724734.426,-1.11057,0.01017,9.97538,1,0,5.4
2.981,2724734.445,-1.15125,0.11097,9.37448,1,0,5.4
3.0,2724734.464,-0.67956,-0.28654,10.25085,1,0,5.4
3.017,2724734.483,-0.80399,-0.41575,9.48455,1,0,5.4
3.038,2724734.502,-1.01007,-0.44207,10.27957,1,0,5.4
3.064,2724734.521,-1.02682,-0.58355,9.94666,1,0,5.4
3.075,2724734.54,-0.68674,-0.36311,9.83659,1,0,5.4
3.094,2724734.559,-0.27727,-0.3655,10.02563,1,0,5.4
3.114,2724734.579,0.0673,-0.3009,9.76242,1,0,5.4
3.131,2724734.598,0.47438,-0.31047,10.0998,1,0,5.4
3.152,2724734.617,0.4337,-0.16451,9.49412,1,0,5.4
3.17,2724734.636,0.38824,-0.06879,10.0352,1,0,5.4
3.191,2724734.655,0.38106,0.04128,9.79831,1,0,5.4
3.21,2724734.674,0.1989,0.11815,9.86292,1,0,5.4
3.229,2724734.693,0.1343,0.24257,9.86531,1,0,5.4
3.246,2724734.712,0.34516,0.35025,10.02084,1,0,5.4
3.266,2724734.731,0.25424,0.37418,9.84138,1,0,5.4
3.285,2724734.75,0.06012,0.36939,9.80549,1,0,5.4
3.304,2724734.769,-0.17198,0.29761,9.92991,1,0,5.4
3.325,2724734.788,-0.2988,0.01256,9.68585,1,0,5.4
3.341,2724734.807,-0.2318,0.00299,9.98016,1,0,5.4
3.359,2724734.826,-0.14566,-0.09272,9.81267,1,0,5.4
3.378,2724734.845,-0.1337,0.07747,10.01606,1,0,5.4
3.399,2724734.864,-0.02124,0.05085,9.87727,1,0,5.4
3.419,2724734.883,0.00269,0.15165,10.05673,1,0,5.4
3.437,2724734.902,-0.05952,0.07747,9.75045,1,0,5.4
3.456,2724734.921,-0.07149,0.11097,9.96102,1,0,5.4
3.475,2724734.94,0.00508,0.04845,9.7672,1,0,5.4
3.498,2724734.959,0.04337,0.10379,9.94188,1,0,5.4
3.512,2724734.978,0.36191,0.15165,9.87249,1,0,5.4
3.535,2724734.997,0.49591,0.20907,9.9682,1,0,5.4
3.55,2724735.016,0.78066,-0.00179,9.6018,1,0,5.4
3.57,2724735.035,0.87906,0.05354,9.98256,1,0,5.4
3.591,2724735.054,0.5007,0.02213,10.1357,1,0,5.4
3.612,2724735.073,0.19412,0.02213,9.64966,1,0,5.4
3.626,2724735.092,0.35474,0.21386,9.98256,1,0,5.4
3.646,2724735.111,0.34277,0.19711,9.94906,1,0,5.4
3.665,2724735.13,0.21565,0.14925,9.60898,1,0,5.4
3.687,2724735.149,-0.03799,0.12054,9.95863,1,0,5.4
3.703,2724735.168,-0.33978,0.15165,9.87727,1,0,5.4
3.726,2724735.187,-0.30598,0.01256,9.86052,1,0,5.4
3.74,2724735.206,-0.43549,-0.00179,10.14527,1,0,5.4
3.758,2724735.225,-0.59103,-0.07358,9.62094,1,0,5.4
3.78,2724735.244,-0.44028,-0.04965,10.12134,1,0,5.4
3.8,2724735.263,-0.4666,-0.00179,9.75045,1,0,5.4
3.819,2724735.282,-0.6987,0.07507,10.03041,1,0,5.4
3.836,2724735.301,-0.62931,-0.02572,9.70499,1,0,5.4
3.858,2724735.32,-0.55035,0.05593,9.99213,1,0,5.4
3.876,2724735.339,-0.43071,0.05354,9.80309,1,0,5.4
3.895,2724735.358,-0.47378,0.04845,9.79592,1,0,5.4
3.915,2724735.377,-0.43549,0.01256,9.83899,1,0,5.4
3.93,2724735.396,-0.41396,0.05593,9.87488,1,0,5.4
3.95,2724735.415,-0.39482,-0.03051,9.99452,1,0,5.4
3.968,2724735.434,-0.29163,0.08465,9.85334,1,0,5.4
3.991,2724735.453,-0.29641,0.18036,9.88445,1,0,5.4
4.011,2724735.472,-0.16002,0.27368,9.80309,1,0,5.4
4.03,2724735.491,-0.04277,0.14207,9.77677,1,0,5.4
4.045,2724735.511,0.01705,0.01256,9.99931,1,0,5.4
4.064,2724735.53,0.1319,-0.0329,9.77677,1,0,5.4
4.083,2724735.549,0.0984,-0.02572,10.06391,1,0,5.4
4.102,2724735.568,0.20847,0.08704,9.84138,1,0,5.4
4.121,2724735.587,0.24197,0.23061,9.98256,1,0,5.4
4.14,2724735.606,0.15583,0.28804,9.8007,1,0,5.4
4.158,2724735.625,0.04337,0.15165,9.88924,1,0,5.4
4.177,2724735.644,-0.08824,0.01496,9.8342,1,0,5.4
4.196,2724735.663,-0.21266,-0.01376,9.83659,1,0,5.4
4.216,2724735.682,-0.14566,0.02692,9.86292,1,0,5.4
4.236,2724735.701,-0.14088,0.07029,9.86531,1,0,5.4
4.255,2724735.72,-0.21984,0.1014,9.90599,1,0,5.4
4.276,2724735.739,-0.18873,0.04606,9.91077,1,0,5.4
4.296,2724735.758,-0.1337,0.01974,9.94188,1,0,5.4
4.315,2724735.777,-0.07388,0.01017,9.93231,1,0,5.4
4.335,2724735.796,-0.07866,0.04367,9.8677,1,0,5.4
4.349,2724735.815,-0.08106,0.12772,9.8342,1,0,5.4
4.37,2724735.834,-0.09063,0.12532,9.81267,1,0,5.4
4.388,2724735.853,-0.07149,0.07986,9.85813,1,0,5.4
4.407,2724735.872,-0.06431,0.0317,9.87727,1,0,5.4
4.425,2724735.891,-0.04277,0.03649,9.91077,1,0,5.4
4.445,2724735.91,-0.03799,0.099,9.90359,1,0,5.4
4.468,2724735.929,-0.06191,0.10618,9.89642,1,0,5.4
4.483,2724735.948,-0.07627,0.09422,9.88924,1,0,5.4
4.502,2724735.967,-0.07149,0.04845,9.87249,1,0,5.4
4.525,2724735.986,-0.0667,0.04128,9.87967,1,0,5.4
4.54,2724736.005,-0.0667,0.07747,9.86052,1,0,5.4
4.559,2724736.024,-0.05952,0.10379,9.87488,1,0,5.4
4.583,2724736.043,-0.05234,0.11336,9.8677,1,0,5.4
4.603,2724736.062,-0.05713,0.07268,9.89163,1,0,5.4
4.614,2724736.081,-0.07149,0.05085,9.89402,1,0,5.4
4.636,2724736.1,-0.08824,0.05833,9.9012,1,0,5.4
4.654,2724736.119,-0.06191,0.09661,9.87727,1,0,5.4
4.676,2724736.138,-0.04277,0.09661,9.87727,1,0,5.4
4.695,2724736.157,-0.04516,0.07268,9.86292,1,0,5.4
4.715,2724736.176,-0.06191,0.06072,9.87249,1,0,5.4
4.735,2724736.195,-0.08106,0.0655,9.88924,1,0,5.4
4.748,2724736.214,-0.07388,0.07507,9.88206,1,0,5.4
4.768,2724736.233,-0.0667,0.09661,9.88684,1,0,5.4
4.791,2724736.252,-0.05713,0.08704,9.88445,1,0,5.4
4.806,2724736.271,-0.07388,0.06311,9.90838,1,0,5.4
4.826,2724736.29,-0.06909,0.07986,9.87967,1,0,5.4
4.844,2724736.309,-0.06431,0.07747,9.87967,1,0,5.4
4.87,2724736.328,-0.05474,0.08465,9.86292,1,0,5.4
4.882,2724736.347,-0.07149,0.07268,9.87967,1,0,5.4
4.901,2724736.366,-0.06909,0.07986,9.87967,1,0,5.4
4.919,2724736.385,-0.08106,0.08225,9.87967,1,0,5.4
4.937,2724736.404,-0.06431,0.08225,9.88684,1,0,5.4
4.958,2724736.423,-0.04756,0.07268,9.87727,1,0,5.4
4.982,2724736.442,-0.05474,0.08465,9.88445,1,0,5.4
5.0,2724736.462,-0.05952,0.08225,9.8677,1,0,5.4
5.015,2724736.481,-0.07866,0.07747,9.88684,1,0,5.4
5.034,2724736.5,-0.0667,0.07268,9.87009,1,0,5.4
5.053,2724736.519,-0.05713,0.07029,9.87009,1,0,5.4
5.085,2724736.538,-0.06431,0.07268,9.87727,1,0,5.4
5.095,2724736.557,-0.0667,0.07986,9.89402,1,0,5.4
5.109,2724736.576,-0.06191,0.09422,9.89163,1,0,5.4
5.128,2724736.595,-0.05713,0.07747,9.87967,1,0,5.4
5.148,2724736.614,-0.05474,0.07986,9.88924,1,0,5.4
5.167,2724736.633,-0.07866,0.07268,9.87488,1,0,5.4
5.186,2724736.652,-0.07149,0.07747,9.87249,1,0,5.4
5.209,2724736.671,-0.0667,0.07029,9.86292,1,0,5.4
5.225,2724736.69,-0.05234,0.07747,9.88445,1,0,5.4
5.244,2724736.709,-0.05713,0.08225,9.88445,1,0,5.4
5.261,2724736.728,-0.05952,0.07029,9.87727,1,0,5.4
5.282,2724736.747,-0.07388,0.08704,9.88684,1,0,5.4
5.301,2724736.766,-0.07627,0.07747,9.88206,1,0,5.4
5.319,2724736.785,-0.06431,0.07986,9.87727,1,0,5.4
5.337,2724736.804,-0.0667,0.07986,9.87009,1,0,5.4
5.357,2724736.823,-0.06431,0.07986,9.88206,1,0,5.4
5.381,2724736.842,-0.06431,0.08465,9.87727,1,0,5.4
5.398,2724736.861,-0.06431,0.09422,9.87488,1,0,5.4
5.42,2724736.88,-0.07149,0.07507,9.87967,1,0,5.4
5.433,2724736.899,-0.05474,0.07268,9.88206,1,0,5.4
5.452,2724736.918,-0.05474,0.07507,9.87727,1,0,5.4
5.471,2724736.937,-0.0667,0.0655,9.87967,1,0,5.4
5.491,2724736.956,-0.05234,0.08225,9.87249,1,0,5.4
5.51,2724736.975,-0.06431,0.07507,9.87967,1,0,5.4
5.528,2724736.994,-0.06431,0.07986,9.88445,1,0,5.4
5.547,2724737.013,-0.06191,0.07986,9.88206,1,0,5.4
5.566,2724737.032,-0.07149,0.07268,9.88924,1,0,5.4
5.589,2724737.051,-0.06909,0.08225,9.88206,1,0,5.4
5.605,2724737.07,-0.05952,0.08225,9.87967,1,0,5.4
5.627,2724737.089,-0.06191,0.07268,9.88445,1,0,5.4
5.643,2724737.108,-0.05952,0.08225,9.87727,1,0,5.4
5.66,2724737.127,-0.05474,0.07507,9.88206,1,0,5.4
5.681,2724737.146,-0.05713,0.08465,9.88206,1,0,5.4
5.699,2724737.165,-0.06431,0.08465,9.88684,1,0,5.4
5.718,2724737.184,-0.0667,0.08225,9.87727,1,0,5.4
5.737,2724737.203,-0.06431,0.0679,9.88684,1,0,5.4
5.76,2724737.222,-0.06909,0.07747,9.87249,1,0,5.4
5.779,2724737.241,-0.0667,0.09182,9.88684,1,0,5.4
5.797,2724737.26,-0.07149,0.07507,9.87488,1,0,5.4
5.813,2724737.279,-0.05713,0.08465,9.88445,1,0,5.4
5.831,2724737.298,-0.05713,0.08225,9.87967,1,0,5.4
5.852,2724737.317,-0.06431,0.07268,9.88206,1,0,5.4
5.874,2724737.336,-0.05474,0.08465,9.87488,1,0,5.4
5.893,2724737.355,-0.0667,0.07268,9.87727,1,0,5.4
5.912,2724737.374,-0.06909,0.08225,9.88445,1,0,5.4
5.931,2724737.394,-0.06431,0.06311,9.87488,1,0,5.4
5.947,2724737.413,-0.04995,0.07986,9.87249,1,0,5.4
5.966,2724737.432,-0.07149,0.06311,9.8677,1,0,5.4
5.988,2724737.451,-0.06431,0.07747,9.88206,1,0,5.4
6.008,2724737.47,-0.05952,0.07268,9.88445,1,0,5.4
6.024,2724737.489,-0.06191,0.07747,9.88445,1,0,5.4
6.042,2724737.508,-0.06431,0.08704,9.87727,1,0,5.4
6.061,2724737.527,-0.06191,0.07747,9.87727,1,0,5.4
6.08,2724737.546,-0.06191,0.07986,9.87727,1,0,5.4
6.099,2724737.565,-0.06431,0.07747,9.88684,1,0,5.4
6.117,2724737.584,-0.05474,0.07507,9.88924,1,0,5.4
6.137,2724737.603,-0.06431,0.07507,9.87967,1,0,5.4
6.156,2724737.622,-0.07866,0.07268,9.88206,1,0,5.4
6.175,2724737.641,-0.0667,0.07268,9.87967,1,0,5.4
6.195,2724737.66,-0.07627,0.07268,9.87967,1,0,5.4
6.214,2724737.679,-0.07149,0.07747,9.86531,1,0,5.4
6.235,2724737.698,-0.04995,0.07986,9.88445,1,0,5.4
6.251,2724737.717,-0.06191,0.08704,9.87727,1,0,5.4
6.274,2724737.736,-0.0667,0.07747,9.89402,1,0,5.4
6.292,2724737.755,-0.06431,0.07986,9.8677,1,0,5.4
6.308,2724737.774,-0.07627,0.07507,9.89163,1,0,5.4
6.331,2724737.793,-0.06431,0.07747,9.87249,1,0,5.4
6.346,2724737.812,-0.07388,0.07986,9.88445,1,0,5.4
6.364,2724737.831,-0.05713,0.07747,9.87967,1,0,5.4
6.387,2724737.85,-0.05474,0.07268,9.88445,1,0,5.4
6.404,2724737.869,-0.06191,0.08943,9.87009,1,0,5.4
6.427,2724737.888,-0.06909,0.07029,9.87967,1,0,5.4
6.442,2724737.907,-0.06909,0.07029,9.87967,1,0,5.4
6.46,2724737.926,-0.05713,0.0679,9.87488,1,0,5.4
6.478,2724737.945,-0.06191,0.07747,9.88445,1,0,5.4
6.5,2724737.964,-0.05713,0.08704,9.87727,1,0,5.4
6.517,2724737.983,-0.07149,0.06311,9.88445,1,0,5.4
6.537,2724738.002,-0.05713,0.07268,9.88206,1,0,5.4
6.559,2724738.021,-0.06431,0.07507,9.87727,1,0,5.4
6.574,2724738.04,-0.06191,0.07986,9.87967,1,0,5.4
6.596,2724738.059,-0.05713,0.07507,9.88684,1,0,5.4
6.617,2724738.078,-0.07388,0.07029,9.87727,1,0,5.4
6.631,2724738.097,-0.06431,0.07029,9.87727,1,0,5.4
6.651,2724738.116,-0.05952,0.0655,9.87727,1,0,5.4
6.669,2724738.135,-0.05952,0.08225,9.87727,1,0,5.4
6.688,2724738.154,-0.06431,0.0679,9.87249,1,0,5.4
6.711,2724738.173,-0.06909,0.07747,9.89642,1,0,5.4
6.729,2724738.192,-0.05713,0.07986,9.87727,1,0,5.4
6.746,2724738.211,-0.06431,0.0655,9.88924,1,0,5.4
6.765,2724738.23,-0.05713,0.07747,9.85334,1,0,5.4
6.785,2724738.249,-0.06191,0.08465,9.88445,1,0,5.4
6.804,2724738.268,-0.05713,0.07507,9.8677,1,0,5.4
6.825,2724738.287,-0.0667,0.08943,9.88684,1,0,5.4
6.841,2724738.306,-0.06431,0.07268,9.8677,1,0,5.4
6.859,2724738.326,-0.05713,0.0679,9.89642,1,0,5.4
6.878,2724738.345,-0.05952,0.07986,9.87488,1,0,5.4
6.901,2724738.364,-0.07388,0.07986,9.87967,1,0,5.4
6.916,2724738.383,-0.06431,0.07029,9.87727,1,0,5.4
6.939,2724738.402,-0.07388,0.07268,9.87249,1,0,5.4
6.956,2724738.421,-0.05713,0.07029,9.87967,1,0,5.4
6.978,2724738.44,-0.05474,0.09182,9.87249,1,0,5.4
6.997,2724738.459,-0.06909,0.07747,9.88445,1,0,5.4
7.015,2724738.478,-0.06191,0.0655,9.88206,1,0,5.4
7.032,2724738.497,-0.06431,0.08704,9.87727,1,0,5.4
7.05,2724738.516,-0.05952,0.06311,9.88206,1,0,5.4
7.08,2724738.535,-0.0667,0.07268,9.87488,1,0,5.4
7.092,2724738.554,-0.0667,0.07268,9.88684,1,0,5.4
7.107,2724738.573,-0.0667,0.08225,9.87488,1,0,5.4
7.125,2724738.592,-0.05713,0.07986,9.88445,1,0,5.4
7.146,2724738.611,-0.05713,0.08943,9.87488,1,0,5.4
7.164,2724738.63,-0.04995,0.08943,9.88445,1,0,5.4
7.183,2724738.649,-0.0667,0.08225,9.87967,1,0,5.4
7.202,2724738.668,-0.06431,0.0655,9.88445,1,0,5.4
7.223,2724738.687,-0.05952,0.0655,9.87009,1,0,5.4
7.24,2724738.706,-0.06191,0.07986,9.87967,1,0,5.4
7.261,2724738.725,-0.0667,0.09182,9.87967,1,0,5.4
7.281,2724738.744,-0.05713,0.07986,9.87488,1,0,5.4
7.301,2724738.763,-0.0667,0.0679,9.88206,1,0,5.4
7.316,2724738.782,-0.06431,0.07747,9.87727,1,0,5.4
7.338,2724738.801,-0.06909,0.08225,9.89163,1,0,5.4
7.355,2724738.82,-0.05713,0.08225,9.87009,1,0,5.4
7.378,2724738.839,-0.06431,0.07268,9.87967,1,0,5.4
7.395,2724738.858,-0.06191,0.0679,9.87727,1,0,5.4
7.417,2724738.877,-0.05474,0.07507,9.88206,1,0,5.4
7.43,2724738.896,-0.05474,0.0679,9.87488,1,0,5.4
7.45,2724738.915,-0.05952,0.07747,9.87488,1,0,5.4
7.469,2724738.934,-0.0667,0.0655,9.88206,1,0,5.4
7.489,2724738.953,-0.06909,0.07986,9.87249,1,0,5.4
7.51,2724738.972,-0.06431,0.07747,9.88206,1,0,5.4
7.529,2724738.991,-0.06909,0.08225,9.88206,1,0,5.4
7.545,2724739.01,-0.05713,0.07507,9.88684,1,0,5.4
7.566,2724739.029,-0.05474,0.07507,9.87967,1,0,5.4
7.582,2724739.048,-0.07149,0.07507,9.88206,1,0,5.4
7.602,2724739.067,-0.07388,0.07268,9.88445,1,0,5.4
7.62,2724739.086,-0.05713,0.07029,9.87727,1,0,5.4
7.639,2724739.105,-0.05952,0.07747,9.88445,1,0,5.4
7.659,2724739.124,-0.05713,0.07747,9.87967,1,0,5.4
7.681,2724739.143,-0.06431,0.08704,9.88206,1,0,5.4
7.701,2724739.162,-0.0667,0.07507,9.87727,1,0,5.4
7.717,2724739.181,-0.05713,0.07747,9.88206,1,0,5.4
7.735,2724739.2,-0.06431,0.08704,9.87488,1,0,5.4
7.758,2724739.219,-0.05474,0.07986,9.87967,1,0,5.4
7.777,2724739.238,-0.06191,0.08465,9.87967,1,0,5.4
7.792,2724739.258,-0.06191,0.09422,9.87967,1,0,5.4
7.812,2724739.277,-0.05952,0.07268,9.88206,1,0,5.4
7.832,2724739.296,-0.05952,0.0679,9.87967,1,0,5.4
7.848,2724739.315,-0.06909,0.08704,9.88445,1,0,5.4
7.871,2724739.334,-0.05234,0.07986,9.87727,1,0,5.4
7.889,2724739.353,-0.06191,0.0679,9.88684,1,0,5.4
7.906,2724739.372,-0.06191,0.07268,9.87249,1,0,5.4
7.929,2724739.391,-0.05952,0.07747,9.88206,1,0,5.4
7.944,2724739.41,-0.07627,0.07747,9.88445,1,0,5.4
7.962,2724739.429,-0.07149,0.07029,9.87488,1,0,5.4
7.982,2724739.448,-0.07627,0.0655,9.88445,1,0,5.4
8.002,2724739.467,-0.05474,0.08704,9.88924,1,0,5.4
8.02,2724739.486,-0.05713,0.07029,9.88445,1,0,5.4
8.038,2724739.505,-0.06909,0.07507,9.87488,1,0,5.4
8.062,2724739.524,-0.06431,0.07029,9.87009,1,0,5.4
8.079,2724739.543,-0.05713,0.08465,9.88924,1,0,5.4
8.097,2724739.562,-0.05713,0.06072,9.88206,1,0,5.4
8.114,2724739.581,-0.0667,0.08225,9.87249,1,0,5.4
8.135,2724739.6,-0.05474,0.07507,9.87249,1,0,5.4
8.153,2724739.619,-0.05952,0.07268,9.88684,1,0,5.4
8.172,2724739.638,-0.07149,0.08943,9.88206,1,0,5.4
8.192,2724739.657,-0.0667,0.07268,9.87967,1,0,5.4
8.214,2724739.676,-0.06909,0.07507,9.87727,1,0,5.4
8.232,2724739.695,-0.05952,0.08465,9.87249,1,0,5.4
8.247,2724739.714,-0.05952,0.08943,9.88206,1,0,5.4
8.267,2724739.733,-0.06909,0.07747,9.87967,1,0,5.4
8.291,2724739.752,-0.07149,0.07507,9.88684,1,0,5.4
8.306,2724739.771,-0.0667,0.08704,9.87967,1,0,5.4
8.324,2724739.79,-0.06431,0.07747,9.87488,1,0,5.4
8.342,2724739.809,-0.06909,0.0655,9.88445,1,0,5.4
8.362,2724739.828,-0.0667,0.08943,9.88445,1,0,5.4
8.382,2724739.847,-0.06431,0.07268,9.88684,1,0,5.4
8.401,2724739.866,-0.05474,0.08465,9.87249,1,0,5.4
8.419,2724739.885,-0.07388,0.0655,9.88924,1,0,5.4
8.437,2724739.904,-0.0667,0.07507,9.8677,1,0,5.4
8.457,2724739.923,-0.0667,0.07029,9.88684,1,0,5.4
8.478,2724739.942,-0.06431,0.0679,9.87249,1,0,5.4
8.495,2724739.961,-0.05952,0.07986,9.89642,1,0,5.4
8.516,2724739.98,-0.06431,0.07507,9.87249,1,0,5.4
8.534,2724739.999,-0.06191,0.0679,9.88684,1,0,5.4
8.552,2724740.018,-0.05474,0.08225,9.88206,1,0,5.4
8.572,2724740.037,-0.07149,0.07507,9.87249,1,0,5.4
8.595,2724740.056,-0.06909,0.07507,9.88684,1,0,5.4
8.613,2724740.075,-0.0667,0.07747,9.88206,1,0,5.4
8.632,2724740.094,-0.06909,0.07747,9.88206,1,0,5.4
8.646,2724740.113,-0.05474,0.07747,9.87488,1,0,5.4
8.666,2724740.132,-0.0667,0.07747,9.88924,1,0,5.4
8.69,2724740.151,-0.05474,0.07986,9.8677,1,0,5.4
8.705,2724740.17,-0.07149,0.0679,9.88445,1,0,5.4
8.725,2724740.19,-0.0667,0.07268,9.87009,1,0,5.4
8.743,2724740.209,-0.06431,0.0655,9.88206,1,0,5.4
8.761,2724740.228,-0.07388,0.07507,9.88924,1,0,5.4
8.781,2724740.247,-0.0667,0.07986,9.87488,1,0,5.4
8.8,2724740.266,-0.07627,0.06311,9.88206,1,0,5.4
8.819,2724740.285,-0.06909,0.07029,9.87967,1,0,5.4
8.838,2724740.304,-0.0667,0.07986,9.88206,1,0,5.4
8.863,2724740.323,-0.06431,0.07507,9.88206,1,0,5.4
8.877,2724740.342,-0.05713,0.08465,9.87967,1,0,5.4
8.897,2724740.361,-0.07866,0.08225,9.88206,1,0,5.4
8.914,2724740.38,-0.06191,0.07268,9.87727,1,0,5.4
8.934,2724740.399,-0.06191,0.07986,9.88206,1,0,5.4
8.953,2724740.418,-0.05713,0.0679,9.87488,1,0,5.4
8.972,2724740.437,-0.05952,0.08465,9.88924,1,0,5.4
8.995,2724740.456,-0.06191,0.08704,9.87488,1,0,5.4
9.01,2724740.475,-0.06431,0.07507,9.88445,1,0,5.4
9.028,2724740.494,-0.0667,0.07507,9.87009,1,0,5.4
9.047,2724740.513,-0.06431,0.07986,9.87967,1,0,5.4
9.069,2724740.532,-0.07149,0.0679,9.88206,1,0,5.4
9.084,2724740.551,-0.06191,0.08225,9.87967,1,0,5.4
9.104,2724740.57,-0.0667,0.07268,9.88684,1,0,5.4
9.125,2724740.589,-0.06191,0.07268,9.87488,1,0,5.4
9.142,2724740.608,-0.06431,0.09422,9.87009,1,0,5.4
9.16,2724740.627,-0.05713,0.08943,9.88206,1,0,5.4
9.18,2724740.646,-0.06191,0.07507,9.88206,1,0,5.4
9.2,2724740.665,-0.07149,0.07268,9.87009,1,0,5.4
9.217,2724740.684,-0.06431,0.0679,9.87727,1,0,5.4
9.237,2724740.703,-0.07149,0.07507,9.87967,1,0,5.4
9.262,2724740.722,-0.07149,0.07268,9.87967,1,0,5.4
9.28,2724740.741,-0.06909,0.08225,9.87727,1,0,5.4
9.299,2724740.76,-0.07149,0.07986,9.88445,1,0,5.4
9.313,2724740.779,-0.0667,0.07507,9.88206,1,0,5.4
9.334,2724740.798,-0.06431,0.07507,9.88445,1,0,5.4
9.354,2724740.817,-0.06431,0.07986,9.87488,1,0,5.4
9.371,2724740.836,-0.0667,0.07029,9.88445,1,0,5.4
9.389,2724740.855,-0.07388,0.07507,9.87967,1,0,5.4
9.409,2724740.874,-0.07149,0.07747,9.87727,1,0,5.4
9.428,2724740.893,-0.0667,0.08704,9.87967,1,0,5.4
9.446,2724740.912,-0.06191,0.08704,9.87488,1,0,5.4
9.467,2724740.931,-0.05234,0.07986,9.87249,1,0,5.4
9.486,2724740.95,-0.05952,0.08943,9.88445,1,0,5.4
9.507,2724740.969,-0.05713,0.07268,9.88206,1,0,5.4
9.528,2724740.988,-0.0667,0.07029,9.88684,1,0,5.4
9.542,2724741.007,-0.05952,0.08943,9.87009,1,0,5.4
9.559,2724741.026,-0.05952,0.07747,9.88445,1,0,5.4
9.58,2724741.045,-0.07149,0.0679,9.87249,1,0,5.4
9.602,2724741.064,-0.05952,0.0679,9.89402,1,0,5.4
9.617,2724741.083,-0.05952,0.07268,9.87249,1,0,5.4
9.637,2724741.102,-0.07149,0.07747,9.89642,1,0,5.4
9.657,2724741.122,-0.0667,0.08225,9.87727,1,0,5.4
9.679,2724741.141,-0.06191,0.07268,9.87967,1,0,5.4
9.697,2724741.16,-0.06191,0.07507,9.87967,1,0,5.4
9.717,2724741.179,-0.05713,0.07986,9.89163,1,0,5.4
9.733,2724741.198,-0.0667,0.07747,9.88206,1,0,5.4
9.751,2724741.217,-0.05952,0.07747,9.87488,1,0,5.4
9.774,2724741.236,-0.06191,0.07747,9.87009,1,0,5.4
9.792,2724741.255,-0.06909,0.08225,9.88684,1,0,5.4
9.812,2724741.274,-0.05952,0.08704,9.87488,1,0,5.4
9.832,2724741.293,-0.05952,0.08943,9.88684,1,0,5.4
9.848,2724741.312,-0.05713,0.07268,9.87249,1,0,5.4
9.865,2724741.331,-0.06431,0.08704,9.88445,1,0,5.4
9.885,2724741.35,-0.05713,0.09661,9.87727,1,0,5.4
9.904,2724741.369,-0.06191,0.08225,9.88445,1,0,5.4
9.927,2724741.388,-0.05952,0.07268,9.88445,1,0,5.4
9.941,2724741.407,-0.05234,0.0679,9.88206,1,0,5.4
9.96,2724741.426,-0.06431,0.0679,9.87727,1,0,5.4
9.979,2724741.445,-0.0667,0.07747,9.87967,1,0,5.4
10.0,2724741.464,-0.07149,0.08225,9.88924,1,0,5.4
10.019,2724741.483,-0.06191,0.08225,9.87249,1,0,5.4
10.037,2724741.502,-0.06191,0.07268,9.88924,1,0,5.4
10.06,2724741.521,-0.07388,0.08465,9.87727,1,0,5.4
10.082,2724741.54,-0.06909,0.07268,9.87727,1,0,5.4
10.095,2724741.559,-0.0667,0.07507,9.87488,1,0,5.4
10.115,2724741.578,-0.06909,0.07986,9.88206,1,0,5.4
10.131,2724741.597,-0.0667,0.07986,9.8677,1,0,5.4
10.15,2724741.616,-0.06191,0.07747,9.88206,1,0,5.4
10.169,2724741.635,-0.07627,0.07986,9.87009,1,0,5.4
10.188,2724741.654,-0.07149,0.08225,9.88684,1,0,5.4
10.207,2724741.673,-0.06909,0.07268,9.87249,1,0,5.4
10.227,2724741.692,-0.06431,0.08943,9.88206,1,0,5.4
10.246,2724741.711,-0.06909,0.08465,9.87249,1,0,5.4
10.264,2724741.73,-0.07149,0.07986,9.88924,1,0,5.4
10.284,2724741.749,-0.0667,0.08465,9.87727,1,0,5.4
10.303,2724741.768,-0.06191,0.07507,9.87727,1,0,5.4
10.321,2724741.787,-0.06431,0.05833,9.88445,1,0,5.4
10.34,2724741.806,-0.05952,0.08943,9.87727,1,0,5.4
10.36,2724741.825,-0.0667,0.07507,9.87488,1,0,5.4
10.383,2724741.844,-0.0667,0.07986,9.87488,1,0,5.4
10.4,2724741.863,-0.07627,0.0655,9.87727,1,0,5.4
10.418,2724741.882,-0.05952,0.0655,9.87488,1,0,5.4
10.437,2724741.901,-0.0667,0.07268,9.87967,1,0,5.4
10.456,2724741.92,-0.07149,0.08225,9.88445,1,0,5.4
10.475,2724741.939,-0.0667,0.07268,9.88206,1,0,5.4
10.494,2724741.958,-0.06909,0.08465,9.87727,1,0,5.4
10.513,2724741.977,-0.05713,0.07747,9.87488,1,0,5.4
10.534,2724741.996,-0.06431,0.07268,9.87488,1,0,5.4
10.55,2724742.015,-0.06431,0.08465,9.87488,1,0,5.4
10.57,2724742.034,-0.05234,0.07747,9.88445,1,0,5.4
10.591,2724742.054,-0.0667,0.08465,9.87727,1,0,5.4
10.608,2724742.073,-0.06191,0.07986,9.88924,1,0,5.4
10.625,2724742.092,-0.05713,0.08225,9.87967,1,0,5.4
10.647,2724742.111,-0.06909,0.07268,9.88206,1,0,5.4
10.664,2724742.13,-0.05952,0.07268,9.87488,1,0,5.4
10.684,2724742.149,-0.06191,0.08225,9.87488,1,0,5.4
10.703,2724742.168,-0.07388,0.08225,9.87727,1,0,5.4
10.725,2724742.187,-0.06909,0.07747,9.88206,1,0,5.4
10.74,2724742.206,-0.06191,0.0679,9.88206,1,0,5.4
10.761,2724742.225,-0.0667,0.08225,9.87727,1,0,5.4
10.778,2724742.244,-0.05952,0.0655,9.88206,1,0,5.4
10.801,2724742.263,-0.06431,0.07507,9.87967,1,0,5.4
10.815,2724742.282,-0.06909,0.07268,9.88684,1,0,5.4
10.835,2724742.301,-0.0667,0.0655,9.87249,1,0,5.4
10.859,2724742.32,-0.05952,0.07507,9.87727,1,0,5.4
10.877,2724742.339,-0.05713,0.07747,9.87967,1,0,5.4
10.896,2724742.358,-0.05713,0.07507,9.87727,1,0,5.4
10.911,2724742.377,-0.06191,0.07747,9.87967,1,0,5.4
10.931,2724742.396,-0.07388,0.07986,9.87488,1,0,5.4
10.949,2724742.415,-0.06909,0.08225,9.87727,1,0,5.4
10.968,2724742.434,-0.05952,0.07507,9.8677,1,0,5.4
10.988,2724742.453,-0.05474,0.07268,9.87967,1,0,5.4
11.006,2724742.472,-0.06909,0.08225,9.86531,1,0,5.4
11.028,2724742.491,-0.06909,0.08704,9.88684,1,0,5.4
11.051,2724742.51,-0.06431,0.08225,9.87727,1,0,5.4
11.08,2724742.529,-0.06431,0.07029,9.88445,1,0,5.4
11.082,2724742.548,-0.06191,0.07507,9.87967,1,0,5.4
11.101,2724742.567,-0.05952,0.07029,9.87727,1,0,5.4
11.12,2724742.586,-0.06191,0.07986,9.87967,1,0,5.4
11.139,2724742.605,-0.05713,0.06072,9.88206,1,0,5.4
11.158,2724742.624,-0.06909,0.07747,9.87727,1,0,5.4
11.179,2724742.643,-0.07866,0.0679,9.88445,1,0,5.4
11.2,2724742.662,-0.07388,0.07268,9.87009,1,0,5.4
11.217,2724742.681,-0.07149,0.07747,9.87967,1,0,5.4
11.235,2724742.7,-0.06191,0.08704,9.86292,1,0,5.4
11.257,2724742.719,-0.05952,0.0655,9.88445,1,0,5.4
11.275,2724742.738,-0.0667,0.07986,9.88684,1,0,5.4
11.296,2724742.757,-0.0667,0.08704,9.88924,1,0,5.4
11.311,2724742.776,-0.06431,0.08704,9.87249,1,0,5.4
11.33,2724742.795,-0.0667,0.08225,9.87967,1,0,5.4
11.349,2724742.814,-0.0667,0.08225,9.87249,1,0,5.4
11.368,2724742.833,-0.06909,0.07029,9.87488,1,0,5.4
11.39,2724742.852,-0.06431,0.07029,9.87967,1,0,5.4
11.407,2724742.871,-0.06909,0.08465,9.87727,1,0,5.4
11.428,2724742.89,-0.05952,0.07268,9.88206,1,0,5.4
11.444,2724742.909,-0.07388,0.07986,9.87727,1,0,5.4
11.462,2724742.928,-0.05713,0.08465,9.87967,1,0,5.4
11.482,2724742.947,-0.06431,0.07268,9.87967,1,0,5.4
11.502,2724742.966,-0.05474,0.07029,9.87967,1,0,5.4
11.52,2724742.986,-0.07149,0.08465,9.88924,1,0,5.4
11.538,2724743.005,-0.07149,0.07747,9.87727,1,0,5.4
11.56,2724743.024,-0.04756,0.09661,9.88206,1,0,5.4
11.579,2724743.043,-0.06191,0.07747,9.87249,1,0,5.4
11.601,2724743.062,-0.06191,0.07747,9.87967,1,0,5.4
11.616,2724743.081,-0.06191,0.07268,9.87967,1,0,5.4
11.634,2724743.1,-0.06909,0.07029,9.87727,1,0,5.4
11.654,2724743.119,-0.06191,0.07747,9.88206,1,0,5.4
11.676,2724743.138,-0.0667,0.07747,9.88206,1,0,5.4
11.694,2724743.157,-0.06909,0.08465,9.88206,1,0,5.4
11.711,2724743.176,-0.06431,0.07986,9.88206,1,0,5.4
11.733,2724743.195,-0.05952,0.07268,9.87009,1,0,5.4
11.747,2724743.214,-0.05952,0.07507,9.88206,1,0,5.4
11.767,2724743.233,-0.06191,0.08465,9.87009,1,0,5.4
11.789,2724743.252,-0.0667,0.07507,9.88684,1,0,5.4
11.81,2724743.271,-0.06191,0.08225,9.87727,1,0,5.4
11.829,2724743.29,-0.0667,0.07747,9.87727,1,0,5.4
11.843,2724743.309,-0.0667,0.0655,9.87727,1,0,5.4
11.862,2724743.328,-0.05234,0.07029,9.88206,1,0,5.4
11.881,2724743.347,-0.06431,0.07986,9.87727,1,0,5.4
11.902,2724743.366,-0.06191,0.07986,9.88684,1,0,5.4
11.919,2724743.385,-0.05952,0.08465,9.87967,1,0,5.4
11.941,2724743.404,-0.07149,0.0679,9.87967,1,0,5.4
11.963,2724743.423,-0.06909,0.07507,9.88445,1,0,5.4
11.982,2724743.442,-0.06191,0.07507,9.88206,1,0,5.4
11.997,2724743.461,-0.07149,0.08465,9.87967,1,0,5.4
12.017,2724743.48,-0.0667,0.08465,9.87249,1,0,5.4
12.034,2724743.499,-0.06909,0.07747,9.88924,1,0,5.4
12.053,2724743.518,-0.05713,0.07268,9.87009,1,0,5.4
12.072,2724743.537,-0.06909,0.07029,9.87727,1,0,5.4
12.093,2724743.556,-0.0667,0.07029,9.87249,1,0,5.4
12.11,2724743.575,-0.06909,0.07747,9.88445,1,0,5.4
12.128,2724743.594,-0.0667,0.08225,9.87967,1,0,5.4
12.146,2724743.613,-0.06431,0.08465,9.88445,1,0,5.4
12.166,2724743.632,-0.0667,0.07747,9.87488,1,0,5.4
12.186,2724743.651,-0.08106,0.07507,9.88445,1,0,5.4
12.205,2724743.67,-0.05713,0.07986,9.88206,1,0,5.4
12.224,2724743.689,-0.07388,0.07747,9.89163,1,0,5.4
12.242,2724743.708,-0.06431,0.08465,9.87249,1,0,5.4
12.261,2724743.727,-0.06431,0.08465,9.87727,1,0,5.4
12.282,2724743.746,-0.05952,0.07507,9.88206,1,0,5.4
12.301,2724743.765,-0.07149,0.07507,9.88684,1,0,5.4
12.318,2724743.784,-0.06431,0.07747,9.88445,1,0,5.4
12.339,2724743.803,-0.06191,0.08704,9.87967,1,0,5.4
12.358,2724743.822,-0.06431,0.07986,9.88206,1,0,5.4
12.381,2724743.841,-0.05952,0.08465,9.88684,1,0,5.4
12.399,2724743.86,-0.0667,0.07029,9.87249,1,0,5.4
12.414,2724743.879,-0.06909,0.07268,9.88206,1,0,5.4
12.432,2724743.898,-0.05474,0.07747,9.87009,1,0,5.4
12.465,2724743.917,-0.05474,0.05833,9.88445,1,0,5.4
12.471,2724743.937,-0.06909,0.07507,9.87249,1,0,5.4
12.489,2724743.956,-0.06909,0.07507,9.88206,1,0,5.4
12.51,2724743.975,-0.04995,0.07268,9.87488,1,0,5.4
12.532,2724743.994,-0.0667,0.07268,9.88206,1,0,5.4
12.55,2724744.013,-0.06191,0.07986,9.88206,1,0,5.4
12.566,2724744.032,-0.06909,0.07507,9.87967,1,0,5.4
12.589,2724744.051,-0.06191,0.08225,9.87488,1,0,5.4
12.607,2724744.07,-0.06909,0.05833,9.87967,1,0,5.4
12.624,2724744.089,-0.06431,0.07029,9.87967,1,0,5.4
12.642,2724744.108,-0.06191,0.07747,9.88445,1,0,5.4
12.66,2724744.127,-0.06909,0.07268,9.87009,1,0,5.4
12.682,2724744.146,-0.06431,0.07747,9.88206,1,0,5.4
12.701,2724744.165,-0.0667,0.07986,9.87967,1,0,5.4
12.718,2724744.184,-0.06909,0.07986,9.87009,1,0,5.4
12.743,2724744.203,-0.05952,0.07986,9.88206,1,0,5.4
12.757,2724744.222,-0.06431,0.07268,9.87249,1,0,5.4
12.777,2724744.241,-0.06909,0.07029,9.89402,1,0,5.4
12.798,2724744.26,-0.07149,0.07507,9.87727,1,0,5.4
12.812,2724744.279,-0.05952,0.08225,9.89163,1,0,5.4
12.833,2724744.298,-0.07149,0.08465,9.8677,1,0,5.4
12.852,2724744.317,-0.06191,0.08225,9.88445,1,0,5.4
12.873,2724744.336,-0.0667,0.07507,9.87967,1,0,5.4
12.89,2724744.355,-0.06191,0.08225,9.87009,1,0,5.4
12.908,2724744.374,-0.06431,0.07747,9.87249,1,0,5.4
12.927,2724744.393,-0.07149,0.07268,9.87727,1,0,5.4
12.95,2724744.412,-0.06431,0.07747,9.88924,1,0,5.4
12.966,2724744.431,-0.05952,0.07986,9.88445,1,0,5.4
12.986,2724744.45,-0.07627,0.07029,9.88445,1,0,5.4
13.003,2724744.469,-0.0667,0.0679,9.87967,1,0,5.4
13.024,2724744.488,-0.06191,0.07747,9.87967,1,0,5.4
13.041,2724744.507,-0.0667,0.08225,9.87967,1,0,5.4
13.078,2724744.526,-0.06191,0.07986,9.87488,1,0,5.4
13.079,2724744.545,-0.05952,0.08465,9.88684,1,0,5.4
13.103,2724744.564,-0.05474,0.07507,9.87249,1,0,5.4
13.117,2724744.583,-0.06431,0.07029,9.88206,1,0,5.4
13.136,2724744.602,-0.07627,0.07507,9.87488,1,0,5.4
13.157,2724744.621,-0.05952,0.07507,9.88684,1,0,5.4
13.175,2724744.64,-0.07388,0.07986,9.87967,1,0,5.4
13.197,2724744.659,-0.06909,0.08225,9.87967,1,0,5.4
13.212,2724744.678,-0.07866,0.0679,9.87249,1,0,5.4
13.23,2724744.697,-0.07149,0.07507,9.87488,1,0,5.4
13.251,2724744.716,-0.06191,0.08704,9.88445,1,0,5.4
13.273,2724744.735,-0.06431,0.07986,9.87727,1,0,5.4
13.289,2724744.754,-0.07388,0.07986,9.87727,1,0,5.4
13.308,2724744.773,-0.0667,0.07747,9.88445,1,0,5.4
13.327,2724744.792,-0.05713,0.0679,9.87249,1,0,5.4
13.348,2724744.811,-0.06191,0.07268,9.88206,1,0,5.4
13.365,2724744.83,-0.05713,0.07507,9.87967,1,0,5.4
13.385,2724744.849,-0.06431,0.07986,9.87727,1,0,5.4
13.404,2724744.869,-0.0667,0.07268,9.88445,1,0,5.4
13.426,2724744.888,-0.06191,0.08225,9.87249,1,0,5.4
13.441,2724744.907,-0.06431,0.07747,9.87967,1,0,5.4
13.458,2724744.926,-0.06191,0.07507,9.87727,1,0,5.4
13.478,2724744.945,-0.06191,0.07268,9.88924,1,0,5.4
13.497,2724744.964,-0.06909,0.07268,9.87009,1,0,5.4
13.517,2724744.983,-0.04995,0.07029,9.88684,1,0,5.4
13.537,2724745.002,-0.05474,0.07507,9.88445,1,0,5.4
13.555,2724745.021,-0.06431,0.07747,9.88206,1,0,5.4
13.575,2724745.04,-0.06191,0.07507,9.87009,1,0,5.4
13.594,2724745.059,-0.05952,0.08225,9.87727,1,0,5.4
13.616,2724745.078,-0.06191,0.07029,9.87967,1,0,5.4
13.63,2724745.097,-0.06431,0.08943,9.87009,1,0,5.4
13.65,2724745.116,-0.06909,0.07029,9.88445,1,0,5.4
13.672,2724745.135,-0.07388,0.06311,9.88206,1,0,5.4
13.693,2724745.154,-0.06909,0.09182,9.88445,1,0,5.4
13.709,2724745.173,-0.05952,0.07029,9.87249,1,0,5.4
13.731,2724745.192,-0.07149,0.07986,9.87727,1,0,5.4
13.748,2724745.211,-0.06431,0.07747,9.88684,1,0,5.4
13.766,2724745.23,-0.06191,0.07986,9.87967,1,0,5.4
13.784,2724745.249,-0.06191,0.08465,9.88445,1,0,5.4
13.803,2724745.268,-0.06431,0.07986,9.87249,1,0,5.4
13.826,2724745.287,-0.07149,0.07747,9.87249,1,0,5.4
13.84,2724745.306,-0.08106,0.07507,9.87488,1,0,5.4
13.858,2724745.325,-0.05952,0.07268,9.88684,1,0,5.4
13.878,2724745.344,-0.06191,0.07986,9.88684,1,0,5.4
13.897,2724745.363,-0.06909,0.09182,9.87727,1,0,5.4
13.916,2724745.382,-0.05952,0.07029,9.88684,1,0,5.4
13.936,2724745.401,-0.05952,0.07029,9.87967,1,0,5.4
13.956,2724745.42,-0.07388,0.08704,9.87727,1,0,5.4
13.974,2724745.439,-0.0667,0.07507,9.87488,1,0,5.4
13.996,2724745.458,-0.0667,0.08465,9.88924,1,0,5.4
14.016,2724745.477,-0.07627,0.08704,9.87727,1,0,5.4
14.031,2724745.496,-0.06909,0.09422,9.87488,1,0,5.4
14.05,2724745.515,-0.07627,0.07986,9.88445,1,0,5.4
14.069,2724745.534,-0.06191,0.07507,9.88684,1,0,5.4
14.096,2724745.553,-0.06909,0.0679,9.87967,1,0,5.4
14.107,2724745.572,-0.0667,0.07268,9.88206,1,0,5.4
14.126,2724745.591,-0.06909,0.07747,9.88445,1,0,5.4
14.145,2724745.61,-0.06431,0.08465,9.87967,1,0,5.4
14.163,2724745.629,-0.06191,0.07986,9.88445,1,0,5.4
14.182,2724745.648,-0.06191,0.07507,9.87727,1,0,5.4
14.201,2724745.667,-0.07149,0.08704,9.88206,1,0,5.4
14.222,2724745.686,-0.06909,0.07747,9.87249,1,0,5.4
14.239,2724745.705,-0.07149,0.07507,9.87727,1,0,5.4
14.256,2724745.724,-0.06431,0.08225,9.88206,1,0,5.4
14.277,2724745.743,-0.06191,0.08465,9.87488,1,0,5.4
14.302,2724745.762,-0.07149,0.07986,9.88924,1,0,5.4
14.315,2724745.781,-0.05713,0.08465,9.87967,1,0,5.4
14.335,2724745.801,-0.06431,0.07747,9.88206,1,0,5.4
14.354,2724745.82,-0.08106,0.08225,9.87727,1,0,5.4
14.377,2724745.839,-0.05474,0.08225,9.88206,1,0,5.4
14.393,2724745.858,-0.07149,0.07986,9.88206,1,0,5.4
14.411,2724745.877,-0.07388,0.07268,9.87488,1,0,5.4
14.43,2724745.896,-0.06909,0.06311,9.89163,1,0,5.4
14.449,2724745.915,-0.07388,0.07029,9.8677,1,0,5.4
14.468,2724745.934,-0.05713,0.08225,9.88445,1,0,5.4
14.486,2724745.953,-0.06431,0.08225,9.8677,1,0,5.4
14.506,2724745.972,-0.06431,0.07268,9.89163,1,0,5.4
14.526,2724745.991,-0.06431,0.08465,9.87249,1,0,5.4
14.544,2724746.01,-0.0667,0.07507,9.88445,1,0,5.4
14.562,2724746.029,-0.06431,0.07507,9.88206,1,0,5.4
14.582,2724746.048,-0.05952,0.0679,9.88445,1,0,5.4
14.602,2724746.067,-0.07149,0.05833,9.87488,1,0,5.4
14.62,2724746.086,-0.06909,0.07268,9.88924,1,0,5.4
14.639,2724746.105,-0.0667,0.07029,9.88206,1,0,5.4
14.659,2724746.124,-0.07149,0.0655,9.88206,1,0,5.4
14.679,2724746.143,-0.05474,0.07986,9.87727,1,0,5.4
14.697,2724746.162,-0.06191,0.07986,9.88445,1,0,5.4
14.714,2724746.181,-0.05713,0.08225,9.87727,1,0,5.4
14.735,2724746.2,-0.06909,0.07986,9.88206,1,0,5.4
14.753,2724746.219,-0.06191,0.08225,9.87488,1,0,5.4
14.772,2724746.238,-0.06191,0.07507,9.89163,1,0,5.4
14.792,2724746.257,-0.06909,0.07268,9.87488,1,0,5.4
14.814,2724746.276,-0.06431,0.07507,9.88924,1,0,5.4
14.832,2724746.295,-0.07149,0.07268,9.87967,1,0,5.4
14.848,2724746.314,-0.06431,0.07747,9.88445,1,0,5.4
14.867,2724746.333,-0.07627,0.07268,9.87488,1,0,5.4
14.889,2724746.352,-0.06431,0.08465,9.87727,1,0,5.4
14.906,2724746.371,-0.0667,0.08225,9.87727,1,0,5.4
14.926,2724746.39,-0.06909,0.07268,9.88445,1,0,5.4
14.945,2724746.409,-0.06191,0.07507,9.87967,1,0,5.4
14.961,2724746.428,-0.07388,0.07986,9.87967,1,0,5.4
14.98,2724746.447,-0.06191,0.08704,9.87488,1,0,5.4
15.0,2724746.466,-0.06431,0.07029,9.87727,1,0,5.4
15.019,2724746.485,-0.0667,0.07268,9.87967,1,0,5.4
15.039,2724746.504,-0.06191,0.07986,9.88206,1,0,5.4
15.068,2724746.523,-0.05713,0.0679,9.87488,1,0,5.4
15.078,2724746.542,-0.0667,0.07747,9.87727,1,0,5.4
15.095,2724746.561,-0.06431,0.07507,9.87249,1,0,5.4
15.112,2724746.58,-0.05713,0.08704,9.87967,1,0,5.4
15.134,2724746.599,-0.0667,0.08225,9.87727,1,0,5.4
15.152,2724746.618,-0.0667,0.07029,9.87488,1,0,5.4
15.172,2724746.637,-0.06431,0.08225,9.88445,1,0,5.4
15.191,2724746.656,-0.05713,0.07268,9.87727,1,0,5.4
15.21,2724746.675,-0.06431,0.08225,9.88206,1,0,5.4
15.23,2724746.694,-0.05952,0.06072,9.87488,1,0,5.4
15.249,2724746.713,-0.0667,0.08225,9.88206,1,0,5.4
15.267,2724746.733,-0.05713,0.08465,9.88206,1,0,5.4
15.286,2724746.752,-0.0667,0.07986,9.87727,1,0,5.4
15.306,2724746.771,-0.0667,0.07507,9.87009,1,0,5.4
15.325,2724746.79,-0.07388,0.08465,9.88684,1,0,5.4
15.343,2724746.809,-0.06431,0.07029,9.88684,1,0,5.4
15.362,2724746.828,-0.05952,0.0679,9.87967,1,0,5.4
15.381,2724746.847,-0.05474,0.07986,9.87249,1,0,5.4
15.401,2724746.866,-0.0667,0.08225,9.87967,1,0,5.4
15.419,2724746.885,-0.07388,0.08465,9.87488,1,0,5.4
15.438,2724746.904,-0.05713,0.07507,9.88445,1,0,5.4
15.458,2724746.923,-0.05234,0.07268,9.8677,1,0,5.4
15.48,2724746.942,-0.05474,0.07986,9.88924,1,0,5.4
15.495,2724746.961,-0.0667,0.07747,9.87727,1,0,5.4
15.516,2724746.98,-0.06431,0.08225,9.89163,1,0,5.4
15.535,2724746.999,-0.07388,0.07268,9.88206,1,0,5.4
15.553,2724747.018,-0.05713,0.07029,9.88206,1,0,5.4
15.572,2724747.037,-0.07149,0.08704,9.87727,1,0,5.4
15.595,2724747.056,-0.06431,0.08465,9.87249,1,0,5.4
15.612,2724747.075,-0.05952,0.07986,9.88445,1,0,5.4
15.628,2724747.094,-0.07149,0.0655,9.87249,1,0,5.4
15.65,2724747.113,-0.06909,0.07268,9.88445,1,0,5.4
15.666,2724747.132,-0.07149,0.07986,9.87967,1,0,5.4
15.685,2724747.151,-0.06191,0.08225,9.88206,1,0,5.4
15.708,2724747.17,-0.06909,0.07986,9.87727,1,0,5.4
15.725,2724747.189,-0.05234,0.07029,9.87727,1,0,5.4
15.742,2724747.208,-0.06191,0.08225,9.88445,1,0,5.4
15.76,2724747.227,-0.05713,0.06311,9.87488,1,0,5.4
15.782,2724747.246,-0.06909,0.07268,9.88206,1,0,5.4
15.801,2724747.265,-0.06431,0.07986,9.88445,1,0,5.4
15.818,2724747.284,-0.06191,0.0679,9.87727,1,0,5.4
15.842,2724747.303,-0.06909,0.0655,9.87488,1,0,5.4
15.857,2724747.322,-0.07149,0.09661,9.87009,1,0,5.4
15.876,2724747.341,-0.05952,0.07268,9.87488,1,0,5.4
15.897,2724747.36,-0.07149,0.07029,9.88924,1,0,5.4
15.913,2724747.379,-0.07149,0.0679,9.88924,1,0,5.4
15.934,2724747.398,-0.06431,0.08465,9.87967,1,0,5.4
15.952,2724747.417,-0.05713,0.07268,9.87967,1,0,5.4
15.97,2724747.436,-0.0667,0.07986,9.88445,1,0,5.4
15.991,2724747.455,-0.06909,0.08704,9.88206,1,0,5.4
16.011,2724747.474,-0.05952,0.07986,9.88206,1,0,5.4
16.03,2724747.493,-0.05713,0.07268,9.88206,1,0,5.4
16.051,2724747.512,-0.07149,0.07986,9.88206,1,0,5.4
16.065,2724747.531,-0.07388,0.07507,9.87727,1,0,5.4
16.086,2724747.55,-0.06191,0.07986,9.87727,1,0,5.4
16.103,2724747.569,-0.07149,0.0655,9.87009,1,0,5.4
16.123,2724747.588,-0.06191,0.0679,9.88445,1,0,5.4
16.141,2724747.607,-0.06191,0.08465,9.87727,1,0,5.4
16.159,2724747.626,-0.06431,0.08225,9.88684,1,0,5.4
16.178,2724747.645,-0.07149,0.0655,9.87967,1,0,5.4
16.198,2724747.665,-0.06431,0.0679,9.88206,1,0,5.4
16.219,2724747.684,-0.0667,0.07747,9.87488,1,0,5.4
16.238,2724747.703,-0.07388,0.08704,9.87967,1,0,5.4
16.257,2724747.722,-0.07149,0.09182,9.87727,1,0,5.4
16.28,2724747.741,-0.06191,0.08943,9.87967,1,0,5.4
16.297,2724747.76,-0.05474,0.07029,9.88206,1,0,5.4
16.313,2724747.779,-0.06431,0.07747,9.87488,1,0,5.4
16.334,2724747.798,-0.07388,0.0679,9.87249,1,0,5.4
16.351,2724747.817,-0.06431,0.0679,9.88445,1,0,5.4
16.37,2724747.836,-0.06909,0.08225,9.8677,1,0,5.4
16.391,2724747.855,-0.06431,0.07986,9.87727,1,0,5.4
16.408,2724747.874,-0.06909,0.08465,9.88206,1,0,5.4
16.427,2724747.893,-0.06431,0.07268,9.88445,1,0,5.4
16.449,2724747.912,-0.05713,0.07268,9.88684,1,0,5.4
16.466,2724747.931,-0.06909,0.07986,9.87249,1,0,5.4
16.488,2724747.95,-0.07627,0.07747,9.88445,1,0,5.4
16.507,2724747.969,-0.0667,0.0679,9.87967,1,0,5.4
16.522,2724747.988,-0.07149,0.0655,9.88684,1,0,5.4
16.541,2724748.007,-0.07149,0.07507,9.87967,1,0,5.4
16.559,2724748.026,-0.06431,0.07747,9.88445,1,0,5.4
16.578,2724748.045,-0.07388,0.07507,9.87727,1,0,5.4
16.599,2724748.064,-0.06191,0.08225,9.87727,1,0,5.4
16.619,2724748.083,-0.06909,0.0655,9.87727,1,0,5.4
16.636,2724748.102,-0.07149,0.07507,9.88206,1,0,5.4
16.657,2724748.121,-0.05234,0.07986,9.87488,1,0,5.4
16.679,2724748.14,-0.06431,0.08225,9.88206,1,0,5.4
16.698,2724748.159,-0.0667,0.08704,9.87967,1,0,5.4
16.716,2724748.178,-0.0667,0.07268,9.88445,1,0,5.4
16.734,2724748.197,-0.06431,0.08465,9.87967,1,0,5.4
16.751,2724748.216,-0.07149,0.07747,9.87727,1,0,5.4
16.769,2724748.235,-0.08106,0.0655,9.88206,1,0,5.4
16.79,2724748.254,-0.0667,0.07268,9.87727,1,0,5.4
16.81,2724748.273,-0.0667,0.07747,9.88206,1,0,5.4
16.826,2724748.292,-0.05952,0.07507,9.87727,1,0,5.4
16.846,2724748.311,-0.06191,0.07747,9.88206,1,0,5.4
16.863,2724748.33,-0.06191,0.08704,9.87727,1,0,5.4
16.884,2724748.349,-0.06909,0.07986,9.87967,1,0,5.4
16.903,2724748.368,-0.07149,0.07747,9.88445,1,0,5.4
16.922,2724748.387,-0.06191,0.07507,9.87967,1,0,5.4
16.94,2724748.406,-0.06909,0.07986,9.87249,1,0,5.4
16.958,2724748.425,-0.07149,0.06072,9.87488,1,0,5.4
16.982,2724748.444,-0.07866,0.0655,9.87249,1,0,5.4
17.0,2724748.463,-0.06909,0.07747,9.87967,1,0,5.4
17.018,2724748.482,-0.06909,0.08225,9.87967,1,0,5.4
17.037,2724748.501,-0.06909,0.08943,9.88684,1,0,5.4
17.077,2724748.52,-0.06191,0.08225,9.87727,1,0,5.4
17.078,2724748.539,-0.05713,0.07747,9.88445,1,0,5.4
17.091,2724748.558,-0.06191,0.07747,9.87488,1,0,5.4
17.112,2724748.577,-0.06431,0.07986,9.88206,1,0,5.4
17.13,2724748.597,-0.06431,0.07029,9.87488,1,0,5.4
17.151,2724748.616,-0.07149,0.07268,9.88445,1,0,5.4
17.168,2724748.635,-0.06191,0.07747,9.88206,1,0,5.4
17.187,2724748.654,-0.07149,0.06072,9.87967,1,0,5.4
17.206,2724748.673,-0.06431,0.07268,9.87967,1,0,5.4
17.225,2724748.692,-0.0667,0.07747,9.88445,1,0,5.4
17.243,2724748.711,-0.05952,0.07747,9.88445,1,0,5.4
17.263,2724748.73,-0.06191,0.07747,9.88206,1,0,5.4
17.281,2724748.749,-0.05713,0.07507,9.87967,1,0,5.4
17.302,2724748.768,-0.06431,0.0679,9.87727,1,0,5.4
17.321,2724748.787,-0.06431,0.07986,9.87967,1,0,5.4
17.339,2724748.806,-0.06191,0.08465,9.87249,1,0,5.4
17.357,2724748.825,-0.06909,0.07507,9.89163,1,0,5.4
17.378,2724748.844,-0.07388,0.07507,9.8677,1,0,5.4
17.397,2724748.863,-0.06191,0.07029,9.88445,1,0,5.4
17.416,2724748.882,-0.05952,0.07747,9.87009,1,0,5.4
17.434,2724748.901,-0.06431,0.08465,9.88924,1,0,5.4
17.454,2724748.92,-0.07627,0.0655,9.87727,1,0,5.4
17.472,2724748.939,-0.07627,0.0679,9.87488,1,0,5.4
17.492,2724748.958,-0.06909,0.07747,9.88206,1,0,5.4
17.51,2724748.977,-0.06191,0.07986,9.87009,1,0,5.4
17.53,2724748.996,-0.0667,0.07268,9.88684,1,0,5.4
17.549,2724749.015,-0.07388,0.08704,9.87249,1,0,5.4
17.567,2724749.034,-0.05952,0.07507,9.89642,1,0,5.4
17.586,2724749.053,-0.05713,0.07507,9.87488,1,0,5.4
17.605,2724749.072,-0.06431,0.08465,9.88206,1,0,5.4
17.624,2724749.091,-0.07149,0.08465,9.88206,1,0,5.4
17.644,2724749.11,-0.06909,0.06072,9.88684,1,0,5.4
17.662,2724749.129,-0.06431,0.07747,9.87249,1,0,5.4
17.681,2724749.148,-0.07149,0.0679,9.89163,1,0,5.4
17.701,2724749.167,-0.05952,0.0655,9.88206,1,0,5.4
17.72,2724749.186,-0.07149,0.07986,9.88924,1,0,5.4
17.74,2724749.205,-0.06431,0.07986,9.88206,1,0,5.4
17.759,2724749.224,-0.07149,0.08465,9.87488,1,0,5.4
17.781,2724749.243,-0.04995,0.07507,9.88924,1,0,5.4
17.796,2724749.262,-0.05713,0.07747,9.8677,1,0,5.4
17.815,2724749.281,-0.07149,0.07986,9.88206,1,0,5.4
17.835,2724749.3,-0.07388,0.07029,9.86292,1,0,5.4
17.853,2724749.319,-0.07866,0.07268,9.87727,1,0,5.4
17.875,2724749.338,-0.05234,0.08465,9.88206,1,0,5.4
17.893,2724749.357,-0.05952,0.07507,9.88445,1,0,5.4
17.911,2724749.376,-0.06431,0.07747,9.87249,1,0,5.4
17.931,2724749.395,-0.07627,0.07507,9.87488,1,0,5.4
17.949,2724749.414,-0.08106,0.07029,9.87967,1,0,5.4
17.967,2724749.433,-0.06431,0.0679,9.88445,1,0,5.4
17.986,2724749.452,-0.05952,0.08704,9.88445,1,0,5.4
18.005,2724749.471,-0.05952,0.08225,9.87727,1,0,5.4
18.024,2724749.49,-0.0667,0.07747,9.88445,1,0,5.4
18.043,2724749.509,-0.07627,0.0679,9.88206,1,0,5.4
18.062,2724749.529,-0.06431,0.08225,9.87488,1,0,5.4
18.084,2724749.548,-0.07149,0.08225,9.87488,1,0,5.4
18.101,2724749.567,-0.06191,0.07986,9.88206,1,0,5.4
18.12,2724749.586,-0.07149,0.0679,9.88206,1,0,5.4
18.138,2724749.605,-0.06431,0.07747,9.87249,1,0,5.4
18.157,2724749.624,-0.06191,0.07986,9.88206,1,0,5.4
18.177,2724749.643,-0.05952,0.07268,9.87727,1,0,5.4
18.197,2724749.662,-0.05952,0.08465,9.87967,1,0,5.4
18.214,2724749.681,-0.0667,0.07029,9.88445,1,0,5.4
18.234,2724749.7,-0.06431,0.08943,9.88206,1,0,5.4
18.253,2724749.719,-0.06191,0.07507,9.88445,1,0,5.4
18.272,2724749.738,-0.0667,0.0679,9.87249,1,0,5.4
18.291,2724749.757,-0.0667,0.08465,9.88684,1,0,5.4
18.31,2724749.776,-0.06431,0.07507,9.87249,1,0,5.4
18.328,2724749.795,-0.07388,0.07986,9.88206,1,0,5.4
18.347,2724749.814,-0.06909,0.07029,9.87967,1,0,5.4
18.367,2724749.833,-0.07149,0.08225,9.87488,1,0,5.4
18.386,2724749.852,-0.06909,0.07747,9.88684,1,0,5.4
18.405,2724749.871,-0.06909,0.07986,9.87009,1,0,5.4
18.424,2724749.89,-0.07627,0.0655,9.88684,1,0,5.4
18.443,2724749.909,-0.07388,0.07747,9.87009,1,0,5.4
18.462,2724749.928,-0.06431,0.0679,9.88684,1,0,5.4
18.481,2724749.947,-0.06191,0.07507,9.8677,1,0,5.4
18.499,2724749.966,-0.06431,0.08465,9.8677,1,0,5.4
18.519,2724749.985,-0.06191,0.07747,9.88206,1,0,5.4
18.537,2724750.004,-0.05713,0.08225,9.88445,1,0,5.4
18.558,2724750.023,-0.0667,0.08225,9.87488,1,0,5.4
18.576,2724750.042,-0.0667,0.08943,9.87967,1,0,5.4
18.596,2724750.061,-0.05713,0.07986,9.88206,1,0,5.4
18.613,2724750.08,-0.05474,0.07747,9.88206,1,0,5.4
18.633,2724750.099,-0.06431,0.08704,9.87727,1,0,5.4
18.651,2724750.118,-0.06909,0.08225,9.87967,1,0,5.4
18.674,2724750.137,-0.06431,0.08225,9.86531,1,0,5.4
18.69,2724750.156,-0.06431,0.08465,9.88445,1,0,5.4
18.71,2724750.175,-0.0667,0.09661,9.8677,1,0,5.4
18.728,2724750.194,-0.06909,0.08225,9.89163,1,0,5.4
18.748,2724750.213,-0.0667,0.0679,9.86531,1,0,5.4
18.765,2724750.232,-0.06431,0.07986,9.89402,1,0,5.4
18.786,2724750.251,-0.05713,0.08225,9.88445,1,0,5.4
18.804,2724750.27,-0.05713,0.08465,9.87488,1,0,5.4
18.823,2724750.289,-0.06431,0.07986,9.87727,1,0,5.4
18.843,2724750.308,-0.0667,0.09422,9.87727,1,0,5.4
18.861,2724750.327,-0.06431,0.08225,9.88445,1,0,5.4
18.879,2724750.346,-0.07149,0.07747,9.87488,1,0,5.4
18.9,2724750.365,-0.06431,0.07747,9.88445,1,0,5.4
18.917,2724750.384,-0.06191,0.08704,9.87967,1,0,5.4
18.937,2724750.403,-0.0667,0.07986,9.88206,1,0,5.4
18.957,2724750.422,-0.06909,0.07747,9.88206,1,0,5.4
18.975,2724750.441,-0.05952,0.08225,9.88445,1,0,5.4
18.994,2724750.461,-0.0667,0.08225,9.87009,1,0,5.4
19.013,2724750.48,-0.07866,0.07268,9.87967,1,0,5.4
19.032,2724750.499,-0.06909,0.07268,9.87967,1,0,5.4
19.076,2724750.518,-0.06909,0.08465,9.88206,1,0,5.4
19.077,2724750.537,-0.05234,0.05833,9.87727,1,0,5.4
19.09,2724750.556,-0.07866,0.0679,9.87249,1,0,5.4
19.108,2724750.575,-0.06191,0.07507,9.88206,1,0,5.4
19.127,2724750.594,-0.05713,0.08225,9.87967,1,0,5.4
19.145,2724750.613,-0.0667,0.08465,9.88206,1,0,5.4
19.165,2724750.632,-0.07149,0.0679,9.87727,1,0,5.4
19.185,2724750.651,-0.05713,0.07507,9.88445,1,0,5.4
19.204,2724750.67,-0.06909,0.07986,9.87727,1,0,5.4
19.222,2724750.689,-0.06191,0.08465,9.87488,1,0,5.4
19.242,2724750.708,-0.07627,0.08704,9.88684,1,0,5.4
19.26,2724750.727,-0.07149,0.07268,9.88445,1,0,5.4
19.28,2724750.746,-0.06909,0.07029,9.88684,1,0,5.4
19.298,2724750.765,-0.06909,0.07029,9.88445,1,0,5.4
19.32,2724750.784,-0.06191,0.07029,9.88445,1,0,5.4
19.337,2724750.803,-0.06431,0.08225,9.87967,1,0,5.4
19.357,2724750.822,-0.05234,0.07747,9.87727,1,0,5.4
19.375,2724750.841,-0.05952,0.08225,9.87488,1,0,5.4
19.394,2724750.86,-0.0667,0.08465,9.88924,1,0,5.4
19.413,2724750.879,-0.0667,0.07029,9.87727,1,0,5.4
19.431,2724750.898,-0.06191,0.07747,9.88206,1,0,5.4
19.451,2724750.917,-0.06431,0.07986,9.88445,1,0,5.4
19.47,2724750.936,-0.07388,0.08225,9.87967,1,0,5.4
19.493,2724750.955,-0.06191,0.09422,9.87249,1,0,5.4
19.508,2724750.974,-0.0667,0.08465,9.88206,1,0,5.4
19.527,2724750.993,-0.07149,0.0679,9.88684,1,0,5.4
19.545,2724751.012,-0.06191,0.07268,9.88206,1,0,5.4
19.565,2724751.031,-0.0667,0.08704,9.87249,1,0,5.4
19.586,2724751.05,-0.06909,0.07507,9.88206,1,0,5.4
19.604,2724751.069,-0.06909,0.07029,9.87727,1,0,5.4
19.624,2724751.088,-0.06909,0.08225,9.88206,1,0,5.4
19.642,2724751.107,-0.07388,0.08465,9.88684,1,0,5.4
19.661,2724751.126,-0.07149,0.07747,9.87009,1,0,5.4
19.679,2724751.145,-0.05713,0.08225,9.87967,1,0,5.4
19.701,2724751.164,-0.05952,0.07507,9.88206,1,0,5.4
19.717,2724751.183,-0.07388,0.08225,9.87967,1,0,5.4
19.738,2724751.202,-0.07388,0.07986,9.88445,1,0,5.4
19.756,2724751.221,-0.05713,0.07986,9.88684,1,0,5.4
19.775,2724751.24,-0.06191,0.07507,9.87488,1,0,5.4
19.798,2724751.259,-0.05952,0.08225,9.87727,1,0,5.4
19.816,2724751.278,-0.05952,0.08225,9.87727,1,0,5.4
19.831,2724751.297,-0.07866,0.0679,9.88206,1,0,5.4
19.851,2724751.316,-0.06431,0.08225,9.88445,1,0,5.4
19.87,2724751.335,-0.0667,0.07986,9.88684,1,0,5.4
19.891,2724751.354,-0.06909,0.07986,9.87249,1,0,5.4
19.908,2724751.373,-0.05474,0.08943,9.87727,1,0,5.4
19.929,2724751.393,-0.0667,0.07747,9.87009,1,0,5.4
19.95,2724751.412,-0.05234,0.07507,9.88684,1,0,5.4
19.964,2724751.431,-0.06191,0.07507,9.87727,1,0,5.4
19.987,2724751.45,-0.0667,0.07747,9.88445,1,0,5.4
20.003,2724751.469,-0.07388,0.0655,9.87488,1,0,5.4
20.026,2724751.488,-0.06431,0.08943,9.88445,1,0,5.4
20.042,2724751.507,-0.07149,0.07986,9.87249,1,0,5.4
20.061,2724751.526,-0.06909,0.07986,9.88924,1,0,5.4
20.077,2724751.545,-0.06909,0.07986,9.87727,1,0,5.4
20.106,2724751.564,-0.06431,0.08225,9.88684,1,0,5.4
20.117,2724751.583,-0.06909,0.08225,9.87009,1,0,5.4
20.136,2724751.602,-0.07866,0.08465,9.88445,1,0,5.4
20.156,2724751.621,-0.07149,0.07747,9.87727,1,0,5.4
20.175,2724751.64,-0.06909,0.08465,9.89163,1,0,5.4
20.194,2724751.659,-0.06431,0.07986,9.87488,1,0,5.4
20.213,2724751.678,-0.06191,0.07507,9.89642,1,0,5.4
20.231,2724751.697,-0.07149,0.0679,9.88206,1,0,5.4
20.25,2724751.716,-0.0667,0.07986,9.88924,1,0,5.4
20.274,2724751.735,-0.07866,0.08225,9.87249,1,0,5.4
20.291,2724751.754,-0.07627,0.07268,9.88924,1,0,5.4
20.311,2724751.773,-0.06909,0.07747,9.87727,1,0,5.4
20.327,2724751.792,-0.05713,0.07507,9.88445,1,0,5.4
20.348,2724751.811,-0.06431,0.07747,9.88206,1,0,5.4
20.364,2724751.83,-0.07627,0.07029,9.88684,1,0,5.4
20.385,2724751.849,-0.0667,0.08225,9.87727,1,0,5.4
20.403,2724751.868,-0.05952,0.07507,9.88684,1,0,5.4
20.422,2724751.887,-0.06191,0.07268,9.87727,1,0,5.4
20.44,2724751.906,-0.07866,0.0679,9.88206,1,0,5.4
20.458,2724751.925,-0.06431,0.08943,9.87249,1,0,5.4
20.481,2724751.944,-0.0667,0.07507,9.88206,1,0,5.4
20.497,2724751.963,-0.07149,0.07268,9.87967,1,0,5.4
20.515,2724751.982,-0.0667,0.06072,9.87488,1,0,5.4
20.537,2724752.001,-0.06191,0.07029,9.87967,1,0,5.4
20.555,2724752.02,-0.07388,0.07268,9.87727,1,0,5.4
20.575,2724752.039,-0.06191,0.06311,9.87249,1,0,5.4
20.592,2724752.058,-0.07388,0.07986,9.8677,1,0,5.4
20.612,2724752.077,-0.05952,0.09422,9.87967,1,0,5.4
20.632,2724752.096,-0.06431,0.08465,9.88206,1,0,5.4
20.65,2724752.115,-0.05952,0.08943,9.87488,1,0,5.4
20.669,2724752.134,-0.05952,0.07986,9.87967,1,0,5.4
20.688,2724752.153,-0.07149,0.08225,9.87249,1,0,5.4
20.707,2724752.172,-0.05952,0.07268,9.87967,1,0,5.4
20.726,2724752.191,-0.05952,0.07029,9.87009,1,0,5.4
20.747,2724752.21,-0.0667,0.07986,9.87967,1,0,5.4
20.762,2724752.229,-0.06909,0.08225,9.88445,1,0,5.4
20.787,2724752.248,-0.0667,0.08225,9.87488,1,0,5.4
20.802,2724752.267,-0.06909,0.07268,9.88445,1,0,5.4
20.82,2724752.286,-0.06431,0.07986,9.87727,1,0,5.4
20.841,2724752.305,-0.0667,0.07268,9.88206,1,0,5.4
20.858,2724752.325,-0.0667,0.07268,9.88206,1,0,5.4
20.881,2724752.344,-0.06431,0.07986,9.87249,1,0,5.4
20.899,2724752.363,-0.07388,0.07747,9.87967,1,0,5.4
20.917,2724752.382,-0.0667,0.07507,9.87967,1,0,5.4
20.936,2724752.401,-0.06909,0.07986,9.88445,1,0,5.4
20.955,2724752.42,-0.06909,0.07029,9.88684,1,0,5.4
20.974,2724752.439,-0.06191,0.08465,9.88684,1,0,5.4
20.996,2724752.458,-0.0667,0.08465,9.88445,1,0,5.4
21.011,2724752.477,-0.06191,0.07747,9.88206,1,0,5.4
21.031,2724752.496,-0.0667,0.07268,9.88445,1,0,5.4
21.063,2724752.515,-0.06431,0.0679,9.87249,1,0,5.4
21.07,2724752.534,-0.06431,0.07268,9.88206,1,0,5.4
21.089,2724752.553,-0.07627,0.08465,9.87967,1,0,5.4
21.107,2724752.572,-0.0667,0.0655,9.88206,1,0,5.4
21.126,2724752.591,-0.07149,0.07029,9.88206,1,0,5.4
21.145,2724752.61,-0.06909,0.07986,9.87967,1,0,5.4
21.163,2724752.629,-0.06431,0.07507,9.88445,1,0,5.4
21.183,2724752.648,-0.06909,0.08465,9.87967,1,0,5.4
21.202,2724752.667,-0.05474,0.08465,9.87249,1,0,5.4
21.224,2724752.686,-0.0667,0.08225,9.88924,1,0,5.4
21.24,2724752.705,-0.05952,0.07507,9.87967,1,0,5.4
21.26,2724752.724,-0.07149,0.07507,9.87967,1,0,5.4
21.281,2724752.743,-0.05952,0.07507,9.87727,1,0,5.4
21.3,2724752.762,-0.06431,0.09422,9.88445,1,0,5.4
21.316,2724752.781,-0.0667,0.07029,9.88206,1,0,5.4
21.335,2724752.8,-0.07149,0.08225,9.87727,1,0,5.4
21.354,2724752.819,-0.05952,0.08225,9.88445,1,0,5.4
21.376,2724752.838,-0.0667,0.07507,9.88445,1,0,5.4
21.392,2724752.857,-0.07149,0.07507,9.88206,1,0,5.4
21.414,2724752.876,-0.07627,0.07747,9.87727,1,0,5.4
21.433,2724752.895,-0.06191,0.08465,9.88445,1,0,5.4
21.449,2724752.914,-0.06431,0.07268,9.88445,1,0,5.4
21.468,2724752.933,-0.05474,0.05833,9.87249,1,0,5.4
21.49,2724752.952,-0.06909,0.07986,9.88924,1,0,5.4
21.507,2724752.971,-0.06431,0.07507,9.86531,1,0,5.4
21.529,2724752.99,-0.06191,0.0655,9.88924,1,0,5.4
21.546,2724753.009,-0.06909,0.07986,9.87967,1,0,5.4
21.562,2724753.028,-0.06431,0.08704,9.88445,1,0,5.4
21.581,2724753.047,-0.05952,0.08465,9.87967,1,0,5.4
21.6,2724753.066,-0.07627,0.07507,9.87488,1,0,5.4
21.619,2724753.085,-0.06909,0.07747,9.88684,1,0,5.4
21.638,2724753.104,-0.05474,0.07029,9.87967,1,0,5.4
21.66,2724753.123,-0.05234,0.08225,9.88924,1,0,5.4
21.681,2724753.142,-0.07149,0.07507,9.87488,1,0,5.4
21.697,2724753.161,-0.05713,0.08943,9.88684,1,0,5.4
21.715,2724753.18,-0.06431,0.08465,9.88445,1,0,5.4
21.734,2724753.199,-0.0667,0.08704,9.87967,1,0,5.4
21.754,2724753.218,-0.0667,0.09422,9.87967,1,0,5.4
21.773,2724753.237,-0.07866,0.07986,9.87727,1,0,5.4
21.795,2724753.257,-0.06431,0.08225,9.87727,1,0,5.4
21.81,2724753.276,-0.07149,0.07747,9.89163,1,0,5.4
21.831,2724753.295,-0.06909,0.07268,9.88206,1,0,5.4
21.848,2724753.314,-0.07149,0.07747,9.88445,1,0,5.4
21.867,2724753.333,-0.07388,0.0655,9.87488,1,0,5.4
21.89,2724753.352,-0.06191,0.07268,9.87967,1,0,5.4
21.907,2724753.371,-0.06909,0.07268,9.87967,1,0,5.4
21.925,2724753.39,-0.06431,0.07029,9.88206,1,0,5.4
21.944,2724753.409,-0.0667,0.07747,9.87727,1,0,5.4
21.961,2724753.428,-0.05952,0.07507,9.87727,1,0,5.4
21.981,2724753.447,-0.07149,0.08465,9.88445,1,0,5.4
22.0,2724753.466,-0.06191,0.08943,9.87967,1,0,5.4
22.019,2724753.485,-0.05474,0.0679,9.87488,1,0,5.4
22.038,2724753.504,-0.0667,0.07747,9.87727,1,0,5.4
22.064,2724753.523,-0.07627,0.09182,9.88924,1,0,5.4
22.08,2724753.542,-0.06191,0.07986,9.88445,1,0,5.4
22.105,2724753.561,-0.07388,0.08465,9.88206,1,0,5.4
22.114,2724753.58,-0.07627,0.07747,9.88206,1,0,5.4
22.134,2724753.599,-0.07149,0.07029,9.88445,1,0,5.4
22.152,2724753.618,-0.0667,0.07029,9.87488,1,0,5.4
22.171,2724753.637,-0.05952,0.07268,9.88924,1,0,5.4
22.19,2724753.656,-0.05952,0.07747,9.88206,1,0,5.4
22.21,2724753.675,-0.06431,0.07986,9.86531,1,0,5.4
22.228,2724753.694,-0.07627,0.07747,9.87967,1,0,5.4
22.249,2724753.713,-0.06191,0.07029,9.88445,1,0,5.4
22.266,2724753.732,-0.0667,0.08943,9.88445,1,0,5.4
22.29,2724753.751,-0.07388,0.0679,9.87488,1,0,5.4
22.304,2724753.77,-0.07388,0.07986,9.88445,1,0,5.4
22.324,2724753.789,-0.06909,0.08704,9.88206,1,0,5.4
22.342,2724753.808,-0.07149,0.07507,9.88684,1,0,5.4
22.36,2724753.827,-0.06431,0.07507,9.88445,1,0,5.4
22.379,2724753.846,-0.06191,0.08465,9.87249,1,0,5.4
22.399,2724753.865,-0.05474,0.09182,9.87967,1,0,5.4
22.418,2724753.884,-0.05713,0.07029,9.88206,1,0,5.4
22.439,2724753.903,-0.07149,0.08225,9.88445,1,0,5.4
22.456,2724753.922,-0.07388,0.08465,9.88684,1,0,5.4
22.476,2724753.941,-0.06431,0.07747,9.88206,1,0,5.4
22.495,2724753.96,-0.05952,0.07268,9.87727,1,0,5.4
22.513,2724753.979,-0.06191,0.07747,9.88206,1,0,5.4
22.534,2724753.998,-0.06431,0.08465,9.88206,1,0,5.4
22.553,2724754.017,-0.05713,0.07747,9.87249,1,0,5.4
22.572,2724754.036,-0.07866,0.07268,9.88924,1,0,5.4
22.59,2724754.055,-0.05713,0.07507,9.87249,1,0,5.4
22.613,2724754.074,-0.05952,0.08465,9.88924,1,0,5.4
22.632,2724754.093,-0.05713,0.07747,9.87488,1,0,5.4
22.646,2724754.112,-0.0667,0.08225,9.88684,1,0,5.4
22.666,2724754.131,-0.07149,0.08465,9.88445,1,0,5.4
22.689,2724754.15,-0.06191,0.07507,9.87967,1,0,5.4
22.704,2724754.169,-0.07388,0.0655,9.87488,1,0,5.4
22.722,2724754.188,-0.05713,0.08225,9.87967,1,0,5.4
22.74,2724754.208,-0.05713,0.07747,9.87249,1,0,5.4
22.759,2724754.227,-0.05952,0.07507,9.87249,1,0,5.4
22.782,2724754.246,-0.06191,0.07986,9.87967,1,0,5.4
22.8,2724754.265,-0.06909,0.06311,9.88445,1,0,5.4
22.821,2724754.284,-0.06909,0.07029,9.87727,1,0,5.4
22.84,2724754.303,-0.0667,0.08704,9.88445,1,0,5.4
22.858,2724754.322,-0.06191,0.08943,9.88684,1,0,5.4
22.875,2724754.341,-0.06909,0.08465,9.88684,1,0,5.4
22.895,2724754.36,-0.06909,0.0679,9.87488,1,0,5.4
22.912,2724754.379,-0.07149,0.08704,9.87727,1,0,5.4
22.932,2724754.398,-0.06431,0.07268,9.88445,1,0,5.4
22.952,2724754.417,-0.05952,0.08465,9.88206,1,0,5.4
22.971,2724754.436,-0.06431,0.08704,9.87727,1,0,5.4
22.992,2724754.455,-0.06431,0.08465,9.89163,1,0,5.4
23.01,2724754.474,-0.05952,0.08704,9.87967,1,0,5.4
23.027,2724754.493,-0.06909,0.08225,9.87727,1,0,5.4
23.05,2724754.512,-0.0667,0.07507,9.87727,1,0,5.4
23.078,2724754.531,-0.06909,0.07747,9.88684,1,0,5.4
23.085,2724754.55,-0.06431,0.05833,9.87727,1,0,5.4
23.103,2724754.569,-0.06431,0.07029,9.88684,1,0,5.4
23.122,2724754.588,-0.06191,0.09182,9.88445,1,0,5.4
23.14,2724754.607,-0.05713,0.07268,9.88206,1,0,5.4
23.159,2724754.626,-0.06431,0.07268,9.87727,1,0,5.4
23.179,2724754.645,-0.0667,0.07029,9.87967,1,0,5.4
23.199,2724754.664,-0.06431,0.08465,9.88206,1,0,5.4
23.218,2724754.683,-0.05234,0.08225,9.87249,1,0,5.4
23.241,2724754.702,-0.07149,0.09661,9.87727,1,0,5.4
23.259,2724754.721,-0.0667,0.08704,9.87249,1,0,5.4
23.278,2724754.74,-0.06909,0.0679,9.88445,1,0,5.4
23.297,2724754.759,-0.06191,0.08943,9.87967,1,0,5.4
23.314,2724754.778,-0.07388,0.08943,9.88445,1,0,5.4
23.331,2724754.797,-0.07627,0.07268,9.87727,1,0,5.4
23.352,2724754.816,-0.06431,0.07747,9.88924,1,0,5.4
23.372,2724754.835,-0.0667,0.08465,9.87009,1,0,5.4
23.393,2724754.854,-0.06191,0.07268,9.87967,1,0,5.4
23.412,2724754.873,-0.07627,0.08465,9.88206,1,0,5.4
23.427,2724754.892,-0.07149,0.07029,9.88445,1,0,5.4
23.449,2724754.911,-0.05952,0.07507,9.87249,1,0,5.4
23.465,2724754.93,-0.06431,0.08465,9.88445,1,0,5.4
23.487,2724754.949,-0.07388,0.08225,9.87488,1,0,5.4
23.504,2724754.968,-0.06191,0.08225,9.89163,1,0,5.4
23.523,2724754.987,-0.06431,0.07747,9.87967,1,0,5.4
23.541,2724755.006,-0.07149,0.0679,9.88445,1,0,5.4
23.56,2724755.025,-0.06431,0.0679,9.87249,1,0,5.4
23.579,2724755.044,-0.0667,0.07986,9.88206,1,0,5.4
23.598,2724755.063,-0.05474,0.0679,9.88684,1,0,5.4
23.618,2724755.082,-0.06191,0.07986,9.87727,1,0,5.4
23.637,2724755.101,-0.06431,0.07507,9.8677,1,0,5.4
23.66,2724755.12,-0.07627,0.07029,9.88684,1,0,5.4
23.678,2724755.14,-0.07149,0.07986,9.87009,1,0,5.4
23.696,2724755.159,-0.06909,0.07986,9.88445,1,0,5.4
23.715,2724755.178,-0.06431,0.07986,9.87249,1,0,5.4
23.732,2724755.197,-0.06431,0.07747,9.88445,1,0,5.4
23.75,2724755.216,-0.07149,0.07268,9.87488,1,0,5.4
23.773,2724755.235,-0.07149,0.07747,9.87727,1,0,5.4
23.79,2724755.254,-0.06191,0.08225,9.88206,1,0,5.4
23.81,2724755.273,-0.06431,0.07986,9.88206,1,0,5.4
23.829,2724755.292,-0.05234,0.08465,9.88206,1,0,5.4
23.844,2724755.311,-0.05952,0.08465,9.87967,1,0,5.4
23.863,2724755.33,-0.06191,0.0679,9.87727,1,0,5.4
23.884,2724755.349,-0.06191,0.07507,9.87727,1,0,5.4
23.904,2724755.368,-0.07149,0.07747,9.87009,1,0,5.4
23.921,2724755.387,-0.0667,0.08465,9.87967,1,0,5.4
23.941,2724755.406,-0.06909,0.07986,9.87967,1,0,5.4
23.96,2724755.425,-0.06431,0.07747,9.88684,1,0,5.4
23.979,2724755.444,-0.06431,0.09182,9.87488,1,0,5.4
24.0,2724755.463,-0.07149,0.07986,9.88445,1,0,5.4
24.017,2724755.482,-0.0667,0.07986,9.87249,1,0,5.4
24.04,2724755.501,-0.0667,0.07747,9.88206,1,0,5.4
24.057,2724755.52,-0.06431,0.07507,9.87488,1,0,5.4
24.079,2724755.539,-0.06191,0.07986,9.88206,1,0,5.4
24.093,2724755.558,-0.07627,0.07747,9.89163,1,0,5.4
24.111,2724755.577,-0.04995,0.08465,9.88206,1,0,5.4
24.129,2724755.596,-0.05713,0.08465,9.89163,1,0,5.4
24.15,2724755.615,-0.07149,0.08225,9.87488,1,0,5.4
24.168,2724755.634,-0.06191,0.07986,9.88206,1,0,5.4
24.187,2724755.653,-0.07627,0.07268,9.85813,1,0,5.4
24.211,2724755.672,-0.06431,0.07268,9.87727,1,0,5.4
24.228,2724755.691,-0.07149,0.07747,9.88206,1,0,5.4
24.245,2724755.71,-0.06431,0.08225,9.89163,1,0,5.4
24.262,2724755.729,-0.05952,0.08704,9.87967,1,0,5.4
24.286,2724755.748,-0.0667,0.07507,9.88924,1,0,5.4
24.302,2724755.767,-0.07149,0.07986,9.87727,1,0,5.4
24.32,2724755.786,-0.05474,0.08225,9.87967,1,0,5.4
24.338,2724755.805,-0.07149,0.08225,9.8677,1,0,5.4
24.359,2724755.824,-0.05952,0.07507,9.88445,1,0,5.4
24.378,2724755.843,-0.05713,0.07029,9.87488,1,0,5.4
24.4,2724755.862,-0.05474,0.08225,9.88445,1,0,5.4
24.416,2724755.881,-0.05952,0.0679,9.87967,1,0,5.4
24.438,2724755.9,-0.06909,0.0679,9.87727,1,0,5.4
24.457,2724755.919,-0.06909,0.07986,9.87488,1,0,5.4
24.473,2724755.938,-0.0667,0.07986,9.87967,1,0,5.4
24.49,2724755.957,-0.06909,0.0655,9.88684,1,0,5.4
24.509,2724755.976,-0.06191,0.08704,9.87967,1,0,5.4
24.532,2724755.995,-0.05952,0.07986,9.87967,1,0,5.4
24.548,2724756.014,-0.06431,0.08465,9.87727,1,0,5.4
24.568,2724756.033,-0.07149,0.07268,9.89163,1,0,5.4
24.589,2724756.052,-0.05952,0.08943,9.87249,1,0,5.4
24.61,2724756.072,-0.06191,0.0679,9.88684,1,0,5.4
24.624,2724756.091,-0.0667,0.07986,9.88206,1,0,5.4
24.643,2724756.11,-0.05952,0.07747,9.88445,1,0,5.4
24.662,2724756.129,-0.07149,0.07747,9.87488,1,0,5.4
24.682,2724756.148,-0.06191,0.08465,9.88684,1,0,5.4
24.701,2724756.167,-0.0667,0.08225,9.87009,1,0,5.4
24.719,2724756.186,-0.0667,0.07029,9.87967,1,0,5.4
24.738,2724756.205,-0.06191,0.09182,9.87009,1,0,5.4
24.758,2724756.224,-0.07388,0.09661,9.89642,1,0,5.4
24.78,2724756.243,-0.06431,0.08225,9.87249,1,0,5.4
24.798,2724756.262,-0.07866,0.08225,9.87488,1,0,5.4
24.817,2724756.281,-0.06909,0.07747,9.87727,1,0,5.4
24.835,2724756.3,-0.0667,0.08225,9.87727,1,0,5.4
24.854,2724756.319,-0.0667,0.08465,9.88684,1,0,5.4
24.873,2724756.338,-0.06431,0.08943,9.87249,1,0,5.4
24.894,2724756.357,-0.06431,0.08704,9.88445,1,0,5.4
24.911,2724756.376,-0.08345,0.07986,9.87967,1,0,5.4
24.932,2724756.395,-0.0667,0.08704,9.87967,1,0,5.4
24.949,2724756.414,-0.05952,0.09182,9.88206,1,0,5.4
24.967,2724756.433,-0.06909,0.07986,9.88445,1,0,5.4
24.988,2724756.452,-0.07388,0.07507,9.88206,1,0,5.4
25.009,2724756.471,-0.06909,0.07507,9.87009,1,0,5.4
25.025,2724756.49,-0.0667,0.08225,9.89163,1,0,5.4
25.05,2724756.509,-0.06191,0.07268,9.87488,1,0,5.4
25.08,2724756.528,-0.06431,0.07986,9.88445,1,0,5.4
25.081,2724756.547,-0.05713,0.07747,9.87488,1,0,5.4
25.101,2724756.566,-0.06909,0.07507,9.88924,1,0,5.4
25.119,2724756.585,-0.06431,0.07986,9.87488,1,0,5.4
25.139,2724756.604,-0.06431,0.08704,9.87488,1,0,5.4
25.159,2724756.623,-0.07866,0.07029,9.88445,1,0,5.4
25.178,2724756.642,-0.07149,0.08225,9.87727,1,0,5.4
25.2,2724756.661,-0.07149,0.07507,9.88206,1,0,5.4
25.217,2724756.68,-0.0667,0.06311,9.8677,1,0,5.4
25.234,2724756.699,-0.07627,0.08465,9.88924,1,0,5.4
25.252,2724756.718,-0.07149,0.08225,9.87488,1,0,5.4
25.275,2724756.737,-0.0667,0.07986,9.88445,1,0,5.4
25.295,2724756.756,-0.07149,0.07029,9.8677,1,0,5.4
25.314,2724756.775,-0.06431,0.099,9.88924,1,0,5.4
25.331,2724756.794,-0.07866,0.08465,9.87488,1,0,5.4
25.349,2724756.813,-0.06909,0.09182,9.89163,1,0,5.4
25.366,2724756.832,-0.0667,0.07986,9.87967,1,0,5.4
25.388,2724756.851,-0.07388,0.07268,9.88206,1,0,5.4
25.408,2724756.87,-0.05952,0.07507,9.87488,1,0,5.4
25.423,2724756.889,-0.0667,0.08225,9.87967,1,0,5.4
25.442,2724756.908,-0.07388,0.07029,9.87488,1,0,5.4
25.46,2724756.927,-0.0667,0.08465,9.87727,1,0,5.4
25.481,2724756.946,-0.06909,0.08225,9.88206,1,0,5.4
25.5,2724756.965,-0.05713,0.07268,9.88684,1,0,5.4
25.519,2724756.984,-0.06191,0.0679,9.87727,1,0,5.4
25.54,2724757.004,-0.06191,0.08465,9.87967,1,0,5.4
25.56,2724757.023,-0.05952,0.08465,9.87967,1,0,5.4
25.577,2724757.042,-0.0667,0.09182,9.88445,1,0,5.4
25.595,2724757.061,-0.06431,0.07986,9.87727,1,0,5.4
25.616,2724757.08,-0.0667,0.07986,9.87727,1,0,5.4
25.633,2724757.099,-0.05713,0.08704,9.87967,1,0,5.4
25.653,2724757.118,-0.0667,0.07268,9.88445,1,0,5.4
25.672,2724757.137,-0.06191,0.08465,9.88445,1,0,5.4
25.691,2724757.156,-0.06191,0.07029,9.88206,1,0,5.4
25.709,2724757.175,-0.07149,0.08225,9.88684,1,0,5.4
25.729,2724757.194,-0.07149,0.07986,9.87488,1,0,5.4
25.749,2724757.213,-0.06431,0.08225,9.87488,1,0,5.4
25.767,2724757.232,-0.06431,0.07986,9.87249,1,0,5.4
25.786,2724757.251,-0.06431,0.07747,9.88684,1,0,5.4
25.805,2724757.27,-0.07388,0.07507,9.86292,1,0,5.4
25.823,2724757.289,-0.0667,0.07507,9.88445,1,0,5.4
25.841,2724757.308,-0.06431,0.07507,9.87967,1,0,5.4
25.861,2724757.327,-0.0667,0.07747,9.88445,1,0,5.4
25.882,2724757.346,-0.05713,0.07029,9.87488,1,0,5.4
25.901,2724757.365,-0.07388,0.07747,9.87967,1,0,5.4
25.917,2724757.384,-0.06909,0.08465,9.88206,1,0,5.4
25.942,2724757.403,-0.07388,0.07747,9.88206,1,0,5.4
25.961,2724757.422,-0.06909,0.08225,9.88206,1,0,5.4
25.981,2724757.441,-0.07627,0.08225,9.89163,1,0,5.4
25.998,2724757.46,-0.06431,0.07986,9.87967,1,0,5.4
26.014,2724757.479,-0.07866,0.07268,9.87967,1,0,5.4
26.033,2724757.498,-0.05474,0.08465,9.87488,1,0,5.4
26.056,2724757.517,-0.05713,0.07029,9.88924,1,0,5.4
26.075,2724757.536,-0.05952,0.07268,9.87967,1,0,5.4
26.089,2724757.555,-0.06909,0.07747,9.89402,1,0,5.4
26.109,2724757.574,-0.06191,0.08465,9.87727,1,0,5.4
26.127,2724757.593,-0.0667,0.08943,9.88206,1,0,5.4
26.146,2724757.612,-0.05952,0.07268,9.87727,1,0,5.4
26.166,2724757.631,-0.06431,0.08704,9.87727,1,0,5.4
26.185,2724757.65,-0.06431,0.08704,9.88445,1,0,5.4
26.204,2724757.669,-0.06431,0.07029,9.88206,1,0,5.4
26.222,2724757.688,-0.06431,0.07986,9.87727,1,0,5.4
26.241,2724757.707,-0.07149,0.07029,9.88206,1,0,5.4
26.262,2724757.726,-0.06431,0.07747,9.88684,1,0,5.4
26.279,2724757.745,-0.07627,0.07747,9.88206,1,0,5.4
26.299,2724757.764,-0.06191,0.07507,9.87488,1,0,5.4
26.318,2724757.783,-0.07388,0.07507,9.88924,1,0,5.4
26.338,2724757.802,-0.06909,0.07507,9.87249,1,0,5.4
26.356,2724757.821,-0.07627,0.0655,9.87967,1,0,5.4
26.375,2724757.84,-0.06431,0.0679,9.88445,1,0,5.4
26.393,2724757.859,-0.06431,0.09182,9.88445,1,0,5.4
26.414,2724757.878,-0.06909,0.07747,9.87727,1,0,5.4
26.433,2724757.897,-0.0667,0.08225,9.87967,1,0,5.4
26.452,2724757.916,-0.05952,0.07747,9.88684,1,0,5.4
26.472,2724757.936,-0.07388,0.08225,9.87488,1,0,5.4
26.493,2724757.955,-0.06431,0.08465,9.88445,1,0,5.4
26.509,2724757.974,-0.0667,0.09661,9.88445,1,0,5.4
26.529,2724757.993,-0.05952,0.08465,9.89163,1,0,5.4
26.549,2724758.012,-0.06191,0.07986,9.87488,1,0,5.4
26.564,2724758.031,-0.06909,0.07507,9.88206,1,0,5.4
26.585,2724758.05,-0.07627,0.08465,9.88206,1,0,5.4
26.602,2724758.069,-0.05952,0.07986,9.87727,1,0,5.4
26.622,2724758.088,-0.06909,0.07986,9.88445,1,0,5.4
26.639,2724758.107,-0.0667,0.08465,9.87727,1,0,5.4
26.659,2724758.126,-0.06909,0.07268,9.88445,1,0,5.4
26.677,2724758.145,-0.07388,0.08704,9.87009,1,0,5.4
26.699,2724758.164,-0.07149,0.07268,9.88206,1,0,5.4
26.719,2724758.183,-0.07627,0.08225,9.88206,1,0,5.4
26.741,2724758.202,-0.0667,0.08225,9.87967,1,0,5.4
26.759,2724758.221,-0.06431,0.07747,9.89163,1,0,5.4
26.776,2724758.24,-0.06431,0.07507,9.87967,1,0,5.4
26.794,2724758.259,-0.06431,0.08704,9.88684,1,0,5.4
26.816,2724758.278,-0.06431,0.07747,9.87488,1,0,5.4
26.832,2724758.297,-0.05952,0.07507,9.88206,1,0,5.4
26.851,2724758.316,-0.06191,0.07747,9.88684,1,0,5.4
26.869,2724758.335,-0.06431,0.0679,9.88206,1,0,5.4
26.892,2724758.354,-0.07149,0.07747,9.8677,1,0,5.4
26.907,2724758.373,-0.06909,0.08465,9.88445,1,0,5.4
26.93,2724758.392,-0.06909,0.08943,9.87488,1,0,5.4
26.948,2724758.411,-0.06909,0.07986,9.88684,1,0,5.4
26.965,2724758.43,-0.06431,0.07747,9.87249,1,0,5.4
26.984,2724758.449,-0.07388,0.08943,9.87488,1,0,5.4
27.003,2724758.468,-0.06909,0.09182,9.88445,1,0,5.4
27.02,2724758.487,-0.06191,0.07747,9.87727,1,0,5.4
27.039,2724758.506,-0.06431,0.07986,9.87967,1,0,5.4
27.065,2724758.525,-0.0667,0.08225,9.87249,1,0,5.4
27.078,2724758.544,-0.05474,0.07507,9.88445,1,0,5.4
27.097,2724758.563,-0.06909,0.07507,9.87727,1,0,5.4
27.115,2724758.582,-0.07388,0.08465,9.88206,1,0,5.4
27.136,2724758.601,-0.06909,0.07986,9.87488,1,0,5.4
27.155,2724758.62,-0.05952,0.08704,9.87249,1,0,5.4
27.174,2724758.639,-0.0667,0.07986,9.87727,1,0,5.4
27.196,2724758.658,-0.07149,0.07747,9.87488,1,0,5.4
27.214,2724758.677,-0.06191,0.07029,9.88206,1,0,5.4
27.229,2724758.696,-0.0667,0.08225,9.87727,1,0,5.4
27.249,2724758.715,-0.0667,0.08225,9.88445,1,0,5.4
27.269,2724758.734,-0.0667,0.08225,9.87967,1,0,5.4
27.288,2724758.753,-0.05952,0.08704,9.87967,1,0,5.4
27.31,2724758.772,-0.0667,0.07747,9.87967,1,0,5.4
27.329,2724758.791,-0.06909,0.07507,9.87967,1,0,5.4
27.344,2724758.81,-0.07149,0.07747,9.88206,1,0,5.4
27.362,2724758.829,-0.06191,0.07507,9.87249,1,0,5.4
27.383,2724758.848,-0.05713,0.07507,9.88924,1,0,5.4
27.403,2724758.868,-0.0667,0.07986,9.87488,1,0,5.4
27.421,2724758.887,-0.06191,0.07747,9.89163,1,0,5.4
27.438,2724758.906,-0.05713,0.07747,9.87488,1,0,5.4
27.458,2724758.925,-0.07149,0.08704,9.88206,1,0,5.4
27.478,2724758.944,-0.06191,0.07029,9.87488,1,0,5.4
27.501,2724758.963,-0.0667,0.0655,9.87727,1,0,5.4
27.515,2724758.982,-0.07149,0.08704,9.89163,1,0,5.4
27.539,2724759.001,-0.06191,0.07507,9.87488,1,0,5.4
27.554,2724759.02,-0.07388,0.08465,9.88684,1,0,5.4
27.573,2724759.039,-0.06431,0.09182,9.87009,1,0,5.4
27.595,2724759.058,-0.0667,0.07507,9.88924,1,0,5.4
27.614,2724759.077,-0.07149,0.07747,9.87967,1,0,5.4
27.632,2724759.096,-0.07149,0.08704,9.88445,1,0,5.4
27.65,2724759.115,-0.07149,0.07747,9.88445,1,0,5.4
27.668,2724759.134,-0.0667,0.07507,9.87727,1,0,5.4
27.687,2724759.153,-0.06909,0.08225,9.87967,1,0,5.4
27.709,2724759.172,-0.0667,0.0679,9.87967,1,0,5.4
27.728,2724759.191,-0.07866,0.07268,9.87727,1,0,5.4
27.747,2724759.21,-0.06909,0.07507,9.87249,1,0,5.4
27.764,2724759.229,-0.06431,0.07029,9.88684,1,0,5.4
27.783,2724759.248,-0.0667,0.099,9.87967,1,0,5.4
27.802,2724759.267,-0.07627,0.07507,9.87488,1,0,5.4
27.824,2724759.286,-0.07149,0.07507,9.89163,1,0,5.4
27.838,2724759.305,-0.0667,0.07747,9.87727,1,0,5.4
27.86,2724759.324,-0.07388,0.08225,9.87727,1,0,5.4
27.882,2724759.343,-0.05474,0.08465,9.88445,1,0,5.4
27.896,2724759.362,-0.06909,0.0679,9.88445,1,0,5.4
27.914,2724759.381,-0.07149,0.08225,9.87488,1,0,5.4
27.935,2724759.4,-0.0667,0.07747,9.88924,1,0,5.4
27.957,2724759.419,-0.05952,0.08943,9.87249,1,0,5.4
27.977,2724759.438,-0.05952,0.08704,9.87967,1,0,5.4
27.992,2724759.457,-0.0667,0.09182,9.87967,1,0,5.4
28.015,2724759.476,-0.06191,0.08465,9.88206,1,0,5.4
28.033,2724759.495,-0.05474,0.0679,9.87967,1,0,5.4
28.049,2724759.514,-0.05713,0.07268,9.88206,1,0,5.4
28.068,2724759.533,-0.05713,0.08704,9.87488,1,0,5.4
28.088,2724759.552,-0.05952,0.07747,9.88206,1,0,5.4
28.105,2724759.571,-0.06431,0.08225,9.87727,1,0,5.4
28.125,2724759.59,-0.07388,0.08465,9.89163,1,0,5.4
28.143,2724759.609,-0.06909,0.08225,9.87249,1,0,5.4
28.162,2724759.628,-0.07388,0.07268,9.88924,1,0,5.4
28.181,2724759.647,-0.07388,0.07747,9.87727,1,0,5.4
28.201,2724759.666,-0.05952,0.07268,9.89402,1,0,5.4
28.219,2724759.685,-0.08106,0.08465,9.88206,1,0,5.4
28.24,2724759.704,-0.07149,0.07268,9.88684,1,0,5.4
28.261,2724759.723,-0.06191,0.07507,9.87488,1,0,5.4
28.281,2724759.742,-0.06431,0.08225,9.89163,1,0,5.4
28.301,2724759.761,-0.07866,0.08943,9.87009,1,0,5.4
28.314,2724759.78,-0.07388,0.08704,9.88206,1,0,5.4
28.334,2724759.8,-0.06909,0.07747,9.87727,1,0,5.4
28.358,2724759.819,-0.06191,0.07507,9.88206,1,0,5.4
28.375,2724759.838,-0.07627,0.09661,9.88924,1,0,5.4
28.394,2724759.857,-0.05713,0.08704,9.88206,1,0,5.4
28.415,2724759.876,-0.06431,0.07268,9.88684,1,0,5.4
28.432,2724759.895,-0.06191,0.07747,9.88445,1,0,5.4
28.448,2724759.914,-0.07149,0.09422,9.87488,1,0,5.4
28.468,2724759.933,-0.05474,0.07747,9.88206,1,0,5.4
28.49,2724759.952,-0.06191,0.08225,9.87727,1,0,5.4
28.506,2724759.971,-0.05952,0.07268,9.88684,1,0,5.4
28.528,2724759.99,-0.06431,0.07268,9.87967,1,0,5.4
28.543,2724760.009,-0.0667,0.07507,9.87967,1,0,5.4
28.561,2724760.028,-0.0667,0.09422,9.88445,1,0,5.4
28.582,2724760.047,-0.05713,0.07986,9.87727,1,0,5.4
28.601,2724760.066,-0.07149,0.07986,9.87488,1,0,5.4
28.623,2724760.085,-0.07149,0.07986,9.87967,1,0,5.4
28.638,2724760.104,-0.05952,0.07029,9.88445,1,0,5.4
28.658,2724760.123,-0.05952,0.07029,9.8677,1,0,5.4
28.682,2724760.142,-0.05474,0.09422,9.89163,1,0,5.4
28.695,2724760.161,-0.05952,0.07986,9.87967,1,0,5.4
28.715,2724760.18,-0.06909,0.08465,9.88924,1,0,5.4
28.733,2724760.199,-0.06191,0.07747,9.87488,1,0,5.4
28.758,2724760.218,-0.06909,0.08225,9.88206,1,0,5.4
28.771,2724760.237,-0.08584,0.07747,9.89163,1,0,5.4
28.795,2724760.256,-0.06431,0.08465,9.89163,1,0,5.4
28.81,2724760.275,-0.06431,0.07268,9.87249,1,0,5.4
28.83,2724760.294,-0.0667,0.08465,9.88445,1,0,5.4
28.846,2724760.313,-0.06431,0.08465,9.87727,1,0,5.4
28.866,2724760.332,-0.05713,0.08225,9.88445,1,0,5.4
28.887,2724760.351,-0.05234,0.08704,9.88206,1,0,5.4
28.905,2724760.37,-0.07149,0.07986,9.88445,1,0,5.4
28.926,2724760.389,-0.06431,0.08704,9.88206,1,0,5.4
28.942,2724760.408,-0.06191,0.0655,9.88206,1,0,5.4
28.961,2724760.427,-0.06431,0.07268,9.87727,1,0,5.4
28.982,2724760.446,-0.07388,0.09182,9.88206,1,0,5.4
28.999,2724760.465,-0.06191,0.08225,9.88206,1,0,5.4
29.019,2724760.484,-0.06431,0.06311,9.88206,1,0,5.4
29.038,2724760.503,-0.0667,0.08225,9.87727,1,0,5.4
29.082,2724760.522,-0.06191,0.08225,9.88445,1,0,5.4
29.082,2724760.541,-0.06909,0.07986,9.88445,1,0,5.4
29.097,2724760.56,-0.05952,0.08465,9.87249,1,0,5.4
29.111,2724760.579,-0.0667,0.08704,9.88445,1,0,5.4
29.133,2724760.598,-0.0667,0.07986,9.87009,1,0,5.4
29.152,2724760.617,-0.07627,0.09422,9.88206,1,0,5.4
29.171,2724760.636,-0.0667,0.09182,9.87727,1,0,5.4
29.19,2724760.655,-0.06191,0.09182,9.88684,1,0,5.4
29.211,2724760.674,-0.06431,0.07268,9.88206,1,0,5.4
29.231,2724760.693,-0.06909,0.07747,9.88684,1,0,5.4
29.249,2724760.712,-0.06431,0.08704,9.87009,1,0,5.4
29.266,2724760.732,-0.06191,0.08943,9.88445,1,0,5.4
29.29,2724760.751,-0.06909,0.08225,9.87967,1,0,5.4
29.307,2724760.77,-0.06431,0.07507,9.88445,1,0,5.4
29.324,2724760.789,-0.06431,0.07507,9.88206,1,0,5.4
29.341,2724760.808,-0.07388,0.07747,9.87488,1,0,5.4
29.36,2724760.827,-0.05474,0.07507,9.87967,1,0,5.4
29.38,2724760.846,-0.0667,0.08704,9.87488,1,0,5.4
29.4,2724760.865,-0.05234,0.07986,9.88206,1,0,5.4
29.419,2724760.884,-0.05713,0.07986,9.87488,1,0,5.4
29.438,2724760.903,-0.05713,0.09182,9.87727,1,0,5.4
29.457,2724760.922,-0.06431,0.07029,9.88206,1,0,5.4
29.48,2724760.941,-0.06909,0.08704,9.87727,1,0,5.4
29.498,2724760.96,-0.05952,0.08704,9.88445,1,0,5.4
29.512,2724760.979,-0.06191,0.08465,9.87249,1,0,5.4
29.531,2724760.998,-0.06191,0.09661,9.88924,1,0,5.4
29.55,2724761.017,-0.07388,0.08704,9.88206,1,0,5.4
29.573,2724761.036,-0.06191,0.06072,9.88684,1,0,5.4
29.59,2724761.055,-0.06431,0.08225,9.87727,1,0,5.4
29.612,2724761.074,-0.06191,0.08225,9.87727,1,0,5.4
29.627,2724761.093,-0.06191,0.07747,9.88206,1,0,5.4
29.651,2724761.112,-0.04516,0.08704,9.88206,1,0,5.4
29.667,2724761.131,-0.07388,0.08225,9.88206,1,0,5.4
29.686,2724761.15,-0.05713,0.07747,9.87249,1,0,5.4
29.703,2724761.169,-0.06431,0.07747,9.88684,1,0,5.4
29.723,2724761.188,-0.06431,0.07747,9.87009,1,0,5.4
29.74,2724761.207,-0.06191,0.08943,9.88924,1,0,5.4
29.758,2724761.226,-0.06431,0.08704,9.86052,1,0,5.4
29.779,2724761.245,-0.0667,0.0655,9.87967,1,0,5.4
29.798,2724761.264,-0.05713,0.07507,9.87727,1,0,5.4
29.819,2724761.283,-0.05474,0.08225,9.88445,1,0,5.4
29.838,2724761.302,-0.06191,0.07507,9.87488,1,0,5.4
29.861,2724761.321,-0.05952,0.07268,9.88445,1,0,5.4
29.876,2724761.34,-0.05952,0.07986,9.87727,1,0,5.4
29.899,2724761.359,-0.05713,0.07747,9.88206,1,0,5.4
29.913,2724761.378,-0.05713,0.07029,9.89163,1,0,5.4
29.932,2724761.397,-0.0667,0.08465,9.87009,1,0,5.4
29.955,2724761.416,-0.06191,0.07747,9.87488,1,0,5.4
29.97,2724761.435,-0.06431,0.09182,9.88445,1,0,5.4
29.989,2724761.454,-0.05474,0.07507,9.88684,1,0,5.4
30.011,2724761.473,-0.0667,0.07029,9.87727,1,0,5.4
30.029,2724761.492,-0.07149,0.0679,9.87967,1,0,5.4
30.049,2724761.511,-0.06909,0.07747,9.87488,1,0,5.4
30.065,2724761.53,-0.06191,0.07986,9.87967,1,0,5.4
30.09,2724761.549,-0.07388,0.08465,9.88445,1,0,5.4
30.105,2724761.568,-0.06431,0.08943,9.87967,1,0,5.4
30.122,2724761.587,-0.07627,0.08225,9.87727,1,0,5.4
30.14,2724761.606,-0.07149,0.08465,9.87727,1,0,5.4
30.158,2724761.625,-0.0667,0.09182,9.87249,1,0,5.4
30.179,2724761.644,-0.0667,0.08943,9.88684,1,0,5.4
30.197,2724761.664,-0.05952,0.09182,9.87967,1,0,5.4
30.217,2724761.683,-0.0667,0.07986,9.87967,1,0,5.4
30.236,2724761.702,-0.06191,0.08465,9.87249,1,0,5.4
30.258,2724761.721,-0.07149,0.08465,9.87488,1,0,5.4
30.278,2724761.74,-0.0667,0.07268,9.87967,1,0,5.4
30.296,2724761.759,-0.07627,0.07747,9.87727,1,0,5.4
30.312,2724761.778,-0.07149,0.07986,9.88206,1,0,5.4
30.332,2724761.797,-0.05234,0.07986,9.88206,1,0,5.4
30.35,2724761.816,-0.06431,0.08225,9.87488,1,0,5.4
30.369,2724761.835,-0.06909,0.07268,9.87488,1,0,5.4
30.392,2724761.854,-0.06431,0.07986,9.87967,1,0,5.4
30.411,2724761.873,-0.06431,0.08225,9.87488,1,0,5.4
30.428,2724761.892,-0.05952,0.08225,9.87488,1,0,5.4
30.448,2724761.911,-0.0667,0.07986,9.88924,1,0,5.4
30.463,2724761.93,-0.06431,0.08704,9.88445,1,0,5.4
30.485,2724761.949,-0.07627,0.08704,9.88206,1,0,5.4
30.503,2724761.968,-0.06909,0.07507,9.87967,1,0,5.4
30.521,2724761.987,-0.05234,0.08943,9.88445,1,0,5.4
30.539,2724762.006,-0.05952,0.0679,9.88206,1,0,5.4
30.558,2724762.025,-0.06431,0.08943,9.88445,1,0,5.4
30.582,2724762.044,-0.06191,0.08465,9.87967,1,0,5.4
30.599,2724762.063,-0.07388,0.07268,9.88206,1,0,5.4
30.617,2724762.082,-0.07149,0.07747,9.88206,1,0,5.4
30.637,2724762.101,-0.08106,0.07507,9.87488,1,0,5.4
30.655,2724762.12,-0.07388,0.07986,9.88445,1,0,5.4
30.673,2724762.139,-0.05713,0.08943,9.87967,1,0,5.4
30.696,2724762.158,-0.06909,0.07507,9.88924,1,0,5.4
30.714,2724762.177,-0.06431,0.07747,9.87249,1,0,5.4
30.73,2724762.196,-0.0667,0.0679,9.88206,1,0,5.4
30.75,2724762.215,-0.06431,0.0679,9.88445,1,0,5.4
30.773,2724762.234,-0.05952,0.0655,9.87488,1,0,5.4
30.788,2724762.253,-0.07149,0.07747,9.89402,1,0,5.4
30.807,2724762.272,-0.0667,0.07268,9.87727,1,0,5.4
30.825,2724762.291,-0.06431,0.09182,9.88924,1,0,5.4
30.843,2724762.31,-0.0667,0.09422,9.87249,1,0,5.4
30.862,2724762.329,-0.06909,0.07986,9.88445,1,0,5.4
30.883,2724762.348,-0.07388,0.08225,9.87967,1,0,5.4
30.901,2724762.367,-0.06191,0.07747,9.87488,1,0,5.4
30.92,2724762.386,-0.0667,0.07268,9.88206,1,0,5.4
30.941,2724762.405,-0.0667,0.08704,9.87249,1,0,5.4
30.963,2724762.424,-0.07866,0.07986,9.88684,1,0,5.4
30.983,2724762.443,-0.07149,0.07507,9.87488,1,0,5.4
31.0,2724762.462,-0.06431,0.07986,9.87727,1,0,5.4
31.016,2724762.481,-0.07149,0.07029,9.87009,1,0,5.4
31.036,2724762.5,-0.07149,0.08704,9.87727,1,0,5.4
31.077,2724762.519,-0.06431,0.07986,9.88445,1,0,5.4
31.078,2724762.538,-0.07149,0.07507,9.87488,1,0,5.4
31.091,2724762.557,-0.0667,0.07747,9.87488,1,0,5.4
31.111,2724762.576,-0.06909,0.07029,9.88445,1,0,5.4
31.129,2724762.596,-0.05952,0.07747,9.88206,1,0,5.4
31.15,2724762.615,-0.07149,0.08465,9.89163,1,0,5.4
31.168,2724762.634,-0.0667,0.07986,9.88445,1,0,5.4
31.187,2724762.653,-0.05713,0.07986,9.87727,1,0,5.4
31.206,2724762.672,-0.06909,0.08225,9.87488,1,0,5.4
31.225,2724762.691,-0.05713,0.08704,9.87488,1,0,5.4
31.244,2724762.71,-0.06909,0.07747,9.87967,1,0,5.4
31.264,2724762.729,-0.07149,0.07986,9.87967,1,0,5.4
31.283,2724762.748,-0.07866,0.0679,9.87727,1,0,5.4
31.301,2724762.767,-0.0667,0.08704,9.88445,1,0,5.4
31.32,2724762.786,-0.06191,0.07986,9.88684,1,0,5.4
31.339,2724762.805,-0.07149,0.08225,9.88445,1,0,5.4
31.359,2724762.824,-0.06191,0.07268,9.87249,1,0,5.4
31.378,2724762.843,-0.07149,0.07029,9.88206,1,0,5.4
31.396,2724762.862,-0.06431,0.08465,9.88206,1,0,5.4
31.414,2724762.881,-0.06909,0.09182,9.89163,1,0,5.4
31.434,2724762.9,-0.07149,0.07986,9.87488,1,0,5.4
31.454,2724762.919,-0.06191,0.08465,9.87727,1,0,5.4
31.475,2724762.938,-0.07149,0.07507,9.88445,1,0,5.4
31.494,2724762.957,-0.06431,0.08704,9.87009,1,0,5.4
31.514,2724762.976,-0.0667,0.07029,9.87967,1,0,5.4
31.529,2724762.995,-0.06191,0.08225,9.87967,1,0,5.4
31.548,2724763.014,-0.0667,0.07747,9.87967,1,0,5.4
31.567,2724763.033,-0.07149,0.08465,9.87249,1,0,5.4
31.587,2724763.052,-0.07388,0.07507,9.87967,1,0,5.4
31.609,2724763.071,-0.07149,0.07507,9.87967,1,0,5.4
31.628,2724763.09,-0.07149,0.07747,9.87488,1,0,5.4
31.642,2724763.109,-0.06191,0.07507,9.88684,1,0,5.4
31.661,2724763.128,-0.06909,0.07986,9.87967,1,0,5.4
31.681,2724763.147,-0.06909,0.0679,9.87967,1,0,5.4
31.7,2724763.166,-0.06191,0.0679,9.88206,1,0,5.4
31.719,2724763.185,-0.06431,0.08704,9.88684,1,0,5.4
31.738,2724763.204,-0.06431,0.08465,9.87009,1,0,5.4
31.758,2724763.223,-0.07866,0.07986,9.88206,1,0,5.4
31.782,2724763.242,-0.06431,0.07747,9.87727,1,0,5.4
31.8,2724763.261,-0.0667,0.08943,9.87967,1,0,5.4
31.815,2724763.28,-0.05952,0.08465,9.87967,1,0,5.4
31.835,2724763.299,-0.05474,0.0655,9.88206,1,0,5.4
31.856,2724763.318,-0.05474,0.08225,9.88684,1,0,5.4
31.876,2724763.337,-0.07388,0.08225,9.87967,1,0,5.4
31.895,2724763.356,-0.06431,0.08943,9.89163,1,0,5.4
31.912,2724763.375,-0.06191,0.08465,9.87488,1,0,5.4
31.931,2724763.394,-0.06909,0.07268,9.88206,1,0,5.4
31.947,2724763.413,-0.07149,0.08465,9.88445,1,0,5.4
31.967,2724763.432,-0.07627,0.08225,9.88445,1,0,5.4
31.986,2724763.451,-0.07149,0.08943,9.87727,1,0,5.4
32.006,2724763.47,-0.0667,0.09182,9.88206,1,0,5.4
32.025,2724763.489,-0.07627,0.08465,9.88206,1,0,5.4
32.042,2724763.508,-0.07149,0.07747,9.87727,1,0,5.4
32.061,2724763.528,-0.06909,0.07986,9.87727,1,0,5.4
32.083,2724763.547,-0.0667,0.07507,9.89163,1,0,5.4
32.104,2724763.566,-0.05713,0.07986,9.87249,1,0,5.4
32.118,2724763.585,-0.06191,0.08465,9.88924,1,0,5.4
32.138,2724763.604,-0.07866,0.08704,9.87488,1,0,5.4
32.158,2724763.623,-0.06191,0.08704,9.87488,1,0,5.4
32.177,2724763.642,-0.0667,0.07986,9.87488,1,0,5.4
32.196,2724763.661,-0.0667,0.08225,9.87967,1,0,5.4
32.216,2724763.68,-0.06909,0.07268,9.88445,1,0,5.4
32.239,2724763.699,-0.06909,0.08943,9.88924,1,0,5.4
32.255,2724763.718,-0.05474,0.07507,9.88206,1,0,5.4
32.275,2724763.737,-0.07149,0.07268,9.88445,1,0,5.4
32.294,2724763.756,-0.0667,0.08225,9.89163,1,0,5.4
32.309,2724763.775,-0.05713,0.08225,9.87967,1,0,5.4
32.332,2724763.794,-0.0667,0.08225,9.88206,1,0,5.4
32.347,2724763.813,-0.06431,0.07029,9.88206,1,0,5.4
32.366,2724763.832,-0.07149,0.07507,9.87727,1,0,5.4
32.389,2724763.851,-0.07388,0.08465,9.88206,1,0,5.4
32.407,2724763.87,-0.05952,0.07268,9.87727,1,0,5.4
32.423,2724763.889,-0.06191,0.07029,9.88924,1,0,5.4
32.442,2724763.908,-0.0667,0.07986,9.87967,1,0,5.4
32.461,2724763.927,-0.06431,0.07747,9.87967,1,0,5.4
32.479,2724763.946,-0.06431,0.07747,9.88206,1,0,5.4
32.5,2724763.965,-0.06431,0.08465,9.87727,1,0,5.4
32.517,2724763.984,-0.05952,0.07268,9.87488,1,0,5.4
32.542,2724764.003,-0.05713,0.07507,9.88445,1,0,5.4
32.557,2724764.022,-0.06431,0.07507,9.88684,1,0,5.4
32.58,2724764.041,-0.0667,0.07507,9.88684,1,0,5.4
32.598,2724764.06,-0.0667,0.08943,9.88206,1,0,5.4
32.616,2724764.079,-0.06191,0.07986,9.88206,1,0,5.4
32.632,2724764.098,-0.07866,0.07747,9.88445,1,0,5.4
32.652,2724764.117,-0.07627,0.07747,9.88206,1,0,5.4
32.67,2724764.136,-0.07149,0.07029,9.89402,1,0,5.4
32.69,2724764.155,-0.06909,0.07029,9.88206,1,0,5.4
32.709,2724764.174,-0.06191,0.07507,9.87727,1,0,5.4
32.727,2724764.193,-0.0667,0.07747,9.88445,1,0,5.4
32.745,2724764.212,-0.06191,0.0655,9.87488,1,0,5.4
32.766,2724764.231,-0.07388,0.07747,9.88684,1,0,5.4
32.785,2724764.25,-0.07388,0.08225,9.8677,1,0,5.4
32.803,2724764.269,-0.07388,0.09661,9.87727,1,0,5.4
32.825,2724764.288,-0.06909,0.07986,9.87727,1,0,5.4
32.842,2724764.307,-0.06909,0.07029,9.88445,1,0,5.4
32.859,2724764.326,-0.05234,0.08465,9.88206,1,0,5.4
32.879,2724764.345,-0.07149,0.08704,9.88206,1,0,5.4
32.9,2724764.364,-0.05952,0.07986,9.88684,1,0,5.4
32.918,2724764.383,-0.06909,0.08225,9.88206,1,0,5.4
32.942,2724764.402,-0.07149,0.07747,9.87488,1,0,5.4
32.961,2724764.421,-0.06191,0.07986,9.88684,1,0,5.4
32.976,2724764.44,-0.07149,0.08225,9.87488,1,0,5.4
32.995,2724764.46,-0.07149,0.08225,9.88445,1,0,5.4
33.016,2724764.479,-0.06431,0.08704,9.87727,1,0,5.4
33.032,2724764.498,-0.07627,0.08465,9.88924,1,0,5.4
33.051,2724764.517,-0.06191,0.07507,9.87967,1,0,5.4
33.08,2724764.536,-0.07866,0.08465,9.89402,1,0,5.4
33.089,2724764.555,-0.06909,0.08704,9.87488,1,0,5.4
33.108,2724764.574,-0.07866,0.08465,9.88206,1,0,5.4
33.127,2724764.593,-0.0667,0.07747,9.87727,1,0,5.4
33.145,2724764.612,-0.06431,0.0655,9.87967,1,0,5.4
33.165,2724764.631,-0.06191,0.08943,9.88684,1,0,5.4
33.184,2724764.65,-0.07149,0.07986,9.88684,1,0,5.4
33.204,2724764.669,-0.06431,0.08704,9.87967,1,0,5.4
33.221,2724764.688,-0.06909,0.09182,9.87967,1,0,5.4
33.241,2724764.707,-0.0667,0.07986,9.88684,1,0,5.4
33.26,2724764.726,-0.06431,0.08225,9.87967,1,0,5.4
33.277,2724764.745,-0.05952,0.08465,9.88924,1,0,5.4
33.3,2724764.764,-0.0667,0.07986,9.88445,1,0,5.4
33.318,2724764.783,-0.07388,0.08225,9.88206,1,0,5.4
33.339,2724764.802,-0.05713,0.0679,9.8677,1,0,5.4
33.36,2724764.821,-0.06909,0.08704,9.88924,1,0,5.4
33.375,2724764.84,-0.0667,0.07986,9.87488,1,0,5.4
33.398,2724764.859,-0.05713,0.07029,9.88684,1,0,5.4
33.414,2724764.878,-0.06909,0.09182,9.87488,1,0,5.4
33.432,2724764.897,-0.06909,0.08465,9.87967,1,0,5.4
33.452,2724764.916,-0.06909,0.0655,9.88445,1,0,5.4
33.47,2724764.935,-0.05713,0.08225,9.87488,1,0,5.4
33.491,2724764.954,-0.05952,0.08465,9.88924,1,0,5.4
33.509,2724764.973,-0.07866,0.099,9.88206,1,0,5.4
33.527,2724764.992,-0.0667,0.08225,9.88206,1,0,5.4
33.549,2724765.011,-0.06909,0.08943,9.87727,1,0,5.4
33.566,2724765.03,-0.06431,0.07029,9.88206,1,0,5.4
33.584,2724765.049,-0.0667,0.08704,9.88206,1,0,5.4
33.603,2724765.068,-0.06431,0.07029,9.87009,1,0,5.4
33.621,2724765.087,-0.05474,0.07029,9.88206,1,0,5.4
33.641,2724765.106,-0.05474,0.07747,9.87967,1,0,5.4
33.658,2724765.125,-0.07149,0.0655,9.89402,1,0,5.4
33.68,2724765.144,-0.05952,0.08225,9.87727,1,0,5.4
33.699,2724765.163,-0.05474,0.08943,9.88684,1,0,5.4
33.717,2724765.182,-0.0667,0.08465,9.87967,1,0,5.4
33.737,2724765.201,-0.07388,0.07507,9.88445,1,0,5.4
33.755,2724765.22,-0.0667,0.07268,9.87727,1,0,5.4
33.779,2724765.239,-0.06909,0.09661,9.89163,1,0,5.4
33.797,2724765.258,-0.07149,0.08704,9.88206,1,0,5.4
33.817,2724765.277,-0.05713,0.07507,9.88206,1,0,5.4
33.831,2724765.296,-0.07149,0.07268,9.87967,1,0,5.4
33.85,2724765.315,-0.07149,0.07747,9.88445,1,0,5.4
33.869,2724765.334,-0.07627,0.08704,9.87488,1,0,5.4
33.89,2724765.353,-0.06909,0.08465,9.88924,1,0,5.4
33.908,2724765.372,-0.06191,0.08225,9.87488,1,0,5.4
33.926,2724765.392,-0.06191,0.07986,9.87727,1,0,5.4
33.944,2724765.411,-0.07388,0.07747,9.86531,1,0,5.4
33.965,2724765.43,-0.07388,0.08943,9.88445,1,0,5.4
33.984,2724765.449,-0.07149,0.07268,9.87967,1,0,5.4
34.004,2724765.468,-0.07388,0.07029,9.89402,1,0,5.4
34.025,2724765.487,-0.0667,0.08704,9.87249,1,0,5.4
34.04,2724765.506,-0.0667,0.07986,9.88924,1,0,5.4
34.058,2724765.525,-0.07149,0.07747,9.87727,1,0,5.4
34.079,2724765.544,-0.07149,0.07747,9.87967,1,0,5.4
34.104,2724765.563,-0.06431,0.0655,9.88206,1,0,5.4
34.116,2724765.582,-0.06191,0.08704,9.88206,1,0,5.4
34.137,2724765.601,-0.07627,0.09182,9.88445,1,0,5.4
34.154,2724765.62,-0.05952,0.08943,9.88445,1,0,5.4
34.173,2724765.639,-0.07388,0.0679,9.89163,1,0,5.4
34.192,2724765.658,-0.07388,0.07986,9.87967,1,0,5.4
34.215,2724765.677,-0.06191,0.08465,9.88206,1,0,5.4
34.23,2724765.696,-0.06909,0.07986,9.87488,1,0,5.4
34.249,2724765.715,-0.07149,0.07029,9.88924,1,0,5.4
34.268,2724765.734,-0.07866,0.09182,9.87009,1,0,5.4
34.291,2724765.753,-0.0667,0.08704,9.88206,1,0,5.4
34.306,2724765.772,-0.07149,0.08225,9.87967,1,0,5.4
34.328,2724765.791,-0.07388,0.0655,9.88206,1,0,5.4
34.344,2724765.81,-0.06909,0.07747,9.87727,1,0,5.4
34.363,2724765.829,-0.0667,0.08225,9.87967,1,0,5.4
34.382,2724765.848,-0.06431,0.08943,9.88445,1,0,5.4
34.401,2724765.867,-0.06909,0.08943,9.87967,1,0,5.4
34.423,2724765.886,-0.07388,0.099,9.88684,1,0,5.4
34.44,2724765.905,-0.06431,0.07747,9.88924,1,0,5.4
34.461,2724765.924,-0.07149,0.07986,9.87967,1,0,5.4
34.481,2724765.943,-0.06909,0.08465,9.87727,1,0,5.4
34.5,2724765.962,-0.07866,0.07986,9.87967,1,0,5.4
34.515,2724765.981,-0.06909,0.07507,9.89163,1,0,5.4
34.539,2724766.0,-0.07866,0.07986,9.87967,1,0,5.4
34.554,2724766.019,-0.07627,0.09182,9.87488,1,0,5.4
34.572,2724766.038,-0.0667,0.08943,9.87488,1,0,5.4
34.591,2724766.057,-0.0667,0.07986,9.88445,1,0,5.4
34.61,2724766.076,-0.06431,0.07268,9.88206,1,0,5.4
34.629,2724766.095,-0.07388,0.07268,9.87967,1,0,5.4
34.649,2724766.114,-0.0667,0.09661,9.88445,1,0,5.4
34.668,2724766.133,-0.07388,0.09182,9.87967,1,0,5.4
34.69,2724766.152,-0.07388,0.08943,9.88445,1,0,5.4
34.707,2724766.171,-0.06909,0.07268,9.88206,1,0,5.4
34.725,2724766.19,-0.07627,0.07029,9.87967,1,0,5.4
34.746,2724766.209,-0.07149,0.0679,9.88924,1,0,5.4
34.761,2724766.228,-0.06909,0.07747,9.87727,1,0,5.4
34.782,2724766.247,-0.07627,0.08465,9.89163,1,0,5.4
34.802,2724766.266,-0.06431,0.08704,9.87727,1,0,5.4
34.819,2724766.285,-0.0667,0.08943,9.89163,1,0,5.4
34.841,2724766.304,-0.07149,0.07986,9.87727,1,0,5.4
34.86,2724766.324,-0.06909,0.0679,9.88206,1,0,5.4
34.88,2724766.343,-0.07388,0.07747,9.88206,1,0,5.4
34.9,2724766.362,-0.05474,0.08704,9.87488,1,0,5.4
34.915,2724766.381,-0.06909,0.08704,9.88684,1,0,5.4
34.935,2724766.4,-0.07149,0.08225,9.87967,1,0,5.4
34.954,2724766.419,-0.07388,0.08225,9.88206,1,0,5.4
34.976,2724766.438,-0.07627,0.07268,9.87488,1,0,5.4
34.992,2724766.457,-0.06909,0.08465,9.88206,1,0,5.4
35.013,2724766.476,-0.06191,0.08225,9.89163,1,0,5.4
35.029,2724766.495,-0.06909,0.08465,9.88206,1,0,5.4
35.051,2724766.514,-0.05952,0.07268,9.88206,1,0,5.4
35.081,2724766.533,-0.0667,0.07268,9.87249,1,0,5.4
35.087,2724766.552,-0.06431,0.07507,9.88924,1,0,5.4
35.105,2724766.571,-0.06909,0.07268,9.88206,1,0,5.4
35.124,2724766.59,-0.07866,0.08704,9.88924,1,0,5.4
35.142,2724766.609,-0.07149,0.0679,9.87967,1,0,5.4
35.161,2724766.628,-0.07149,0.07747,9.88206,1,0,5.4
35.181,2724766.647,-0.07627,0.07507,9.87727,1,0,5.4
35.2,2724766.666,-0.06431,0.08465,9.89163,1,0,5.4
35.218,2724766.685,-0.07388,0.07747,9.87727,1,0,5.4
35.238,2724766.704,-0.07149,0.08225,9.87727,1,0,5.4
35.262,2724766.723,-0.0667,0.07986,9.88206,1,0,5.4
35.282,2724766.742,-0.0667,0.07029,9.88445,1,0,5.4
35.299,2724766.761,-0.0667,0.07747,9.88445,1,0,5.4
35.315,2724766.78,-0.06431,0.07986,9.87967,1,0,5.4
35.334,2724766.799,-0.06909,0.07986,9.88206,1,0,5.4
35.352,2724766.818,-0.06909,0.08943,9.88445,1,0,5.4
35.374,2724766.837,-0.05713,0.09182,9.88445,1,0,5.4
35.391,2724766.856,-0.06909,0.08225,9.87967,1,0,5.4
35.41,2724766.875,-0.0667,0.07747,9.87967,1,0,5.4
35.433,2724766.894,-0.05952,0.07986,9.87488,1,0,5.4
35.449,2724766.913,-0.05474,0.07986,9.88684,1,0,5.4
35.469,2724766.932,-0.0667,0.07747,9.87727,1,0,5.4
35.49,2724766.951,-0.06191,0.08465,9.88206,1,0,5.4
35.508,2724766.97,-0.07149,0.07986,9.88684,1,0,5.4
35.524,2724766.989,-0.07149,0.08943,9.87967,1,0,5.4
35.542,2724767.008,-0.05952,0.08225,9.88445,1,0,5.4
35.561,2724767.027,-0.06431,0.09422,9.88924,1,0,5.4
35.58,2724767.046,-0.07149,0.08225,9.88206,1,0,5.4
35.6,2724767.065,-0.07388,0.07986,9.88206,1,0,5.4
35.619,2724767.084,-0.06909,0.07507,9.88924,1,0,5.4
35.641,2724767.103,-0.07388,0.07986,9.88445,1,0,5.4
35.657,2724767.122,-0.06909,0.0655,9.87727,1,0,5.4
35.677,2724767.141,-0.0667,0.07507,9.88684,1,0,5.4
35.696,2724767.16,-0.06431,0.08225,9.87967,1,0,5.4
35.713,2724767.179,-0.07388,0.08225,9.88206,1,0,5.4
35.732,2724767.198,-0.0667,0.099,9.87727,1,0,5.4
35.752,2724767.217,-0.0667,0.08225,9.87727,1,0,5.4
35.77,2724767.236,-0.06909,0.08704,9.87488,1,0,5.4
35.79,2724767.255,-0.07866,0.07507,9.87727,1,0,5.4
35.809,2724767.275,-0.06191,0.08704,9.87967,1,0,5.4
35.829,2724767.294,-0.07149,0.08225,9.87488,1,0,5.4
35.847,2724767.313,-0.06191,0.09182,9.87727,1,0,5.4
35.867,2724767.332,-0.0667,0.07986,9.87967,1,0,5.4
35.885,2724767.351,-0.06909,0.07507,9.88684,1,0,5.4
35.905,2724767.37,-0.07388,0.09182,9.87967,1,0,5.4
35.924,2724767.389,-0.07388,0.08704,9.87967,1,0,5.4
35.942,2724767.408,-0.06431,0.08465,9.88206,1,0,5.4
35.96,2724767.427,-0.07149,0.07747,9.87967,1,0,5.4
35.98,2724767.446,-0.07388,0.08704,9.88206,1,0,5.4
36.0,2724767.465,-0.07388,0.08704,9.87488,1,0,5.4
36.018,2724767.484,-0.0667,0.07029,9.88684,1,0,5.4
36.037,2724767.503,-0.07149,0.08943,9.88206,1,0,5.4
36.057,2724767.522,-0.08824,0.08225,9.87727,1,0,5.4
36.075,2724767.541,-0.0667,0.07747,9.87009,1,0,5.4
36.1,2724767.56,-0.07627,0.07507,9.88206,1,0,5.4
36.111,2724767.579,-0.06431,0.07986,9.87249,1,0,5.4
36.133,2724767.598,-0.07627,0.07507,9.88445,1,0,5.4
36.152,2724767.617,-0.07149,0.08704,9.87967,1,0,5.4
36.171,2724767.636,-0.0667,0.07986,9.87967,1,0,5.4
36.189,2724767.655,-0.06431,0.07029,9.87967,1,0,5.4
36.208,2724767.674,-0.0667,0.08943,9.88684,1,0,5.4
36.227,2724767.693,-0.07627,0.08704,9.87727,1,0,5.4
36.246,2724767.712,-0.07149,0.08465,9.87967,1,0,5.4
36.264,2724767.731,-0.06431,0.08225,9.88206,1,0,5.4
36.284,2724767.75,-0.05952,0.07507,9.88445,1,0,5.4
36.304,2724767.769,-0.07866,0.08465,9.87967,1,0,5.4
36.323,2724767.788,-0.0667,0.07747,9.88684,1,0,5.4
36.34,2724767.807,-0.06191,0.08465,9.88684,1,0,5.4
36.359,2724767.826,-0.07866,0.07986,9.87967,1,0,5.4
36.378,2724767.845,-0.06431,0.08465,9.88684,1,0,5.4
36.397,2724767.864,-0.06431,0.07986,9.88684,1,0,5.4
36.421,2724767.883,-0.05952,0.08465,9.88924,1,0,5.4
36.44,2724767.902,-0.07149,0.07268,9.87727,1,0,5.4
36.457,2724767.921,-0.07149,0.0679,9.87488,1,0,5.4
36.476,2724767.94,-0.06431,0.08704,9.87967,1,0,5.4
36.496,2724767.959,-0.07149,0.08225,9.87488,1,0,5.4
36.512,2724767.978,-0.06909,0.08465,9.88684,1,0,5.4
36.531,2724767.997,-0.07388,0.08465,9.87249,1,0,5.4
36.554,2724768.016,-0.0667,0.07986,9.87967,1,0,5.4
36.57,2724768.035,-0.06431,0.07986,9.88924,1,0,5.4
36.589,2724768.054,-0.07627,0.08943,9.88445,1,0,5.4
36.612,2724768.073,-0.05713,0.08943,9.87727,1,0,5.4
36.63,2724768.092,-0.07149,0.09422,9.88924,1,0,5.4
36.644,2724768.111,-0.07627,0.08225,9.87488,1,0,5.4
36.664,2724768.13,-0.06909,0.08465,9.89163,1,0,5.4
36.684,2724768.149,-0.07149,0.07986,9.87967,1,0,5.4
36.707,2724768.168,-0.07388,0.07507,9.89163,1,0,5.4
36.722,2724768.187,-0.06909,0.08465,9.87967,1,0,5.4
36.739,2724768.207,-0.06191,0.09661,9.88924,1,0,5.4
36.761,2724768.226,-0.06191,0.08465,9.88206,1,0,5.4
36.78,2724768.245,-0.07388,0.07986,9.88445,1,0,5.4
36.801,2724768.264,-0.07149,0.07986,9.87727,1,0,5.4
36.818,2724768.283,-0.0667,0.08225,9.87488,1,0,5.4
36.837,2724768.302,-0.06191,0.07507,9.88206,1,0,5.4
36.859,2724768.321,-0.07149,0.08465,9.88206,1,0,5.4
36.875,2724768.34,-0.0667,0.08704,9.88206,1,0,5.4
36.897,2724768.359,-0.06191,0.08465,9.89402,1,0,5.4
36.912,2724768.378,-0.0667,0.08225,9.87727,1,0,5.4
36.932,2724768.397,-0.05234,0.08225,9.88445,1,0,5.4
36.95,2724768.416,-0.05474,0.08704,9.88924,1,0,5.4
36.969,2724768.435,-0.06431,0.07507,9.88445,1,0,5.4
36.991,2724768.454,-0.06909,0.07507,9.88445,1,0,5.4
37.007,2724768.473,-0.07866,0.07747,9.87009,1,0,5.4
37.025,2724768.492,-0.07149,0.08704,9.87727,1,0,5.4
37.048,2724768.511,-0.06909,0.08465,9.87727,1,0,5.4
37.065,2724768.53,-0.05952,0.08943,9.87727,1,0,5.4
37.082,2724768.549,-0.05713,0.09422,9.87249,1,0,5.4
37.101,2724768.568,-0.06431,0.07986,9.88445,1,0,5.4
37.123,2724768.587,-0.06431,0.08704,9.87967,1,0,5.4
37.139,2724768.606,-0.0667,0.08943,9.87488,1,0,5.4
37.158,2724768.625,-0.05952,0.08704,9.88445,1,0,5.4
37.177,2724768.644,-0.06431,0.09422,9.88206,1,0,5.4
37.196,2724768.663,-0.06191,0.08943,9.88206,1,0,5.4
37.217,2724768.682,-0.07149,0.08704,9.87727,1,0,5.4
37.234,2724768.701,-0.0667,0.07507,9.88445,1,0,5.4
37.253,2724768.72,-0.0667,0.07507,9.88206,1,0,5.4
37.274,2724768.739,-0.06431,0.08225,9.87488,1,0,5.4
37.294,2724768.758,-0.07627,0.08225,9.88445,1,0,5.4
37.315,2724768.777,-0.06431,0.07268,9.87727,1,0,5.4
37.33,2724768.796,-0.05952,0.08943,9.87249,1,0,5.4
37.348,2724768.815,-0.06909,0.09182,9.87727,1,0,5.4
37.369,2724768.834,-0.07627,0.09422,9.88445,1,0,5.4
37.389,2724768.853,-0.07388,0.07986,9.88445,1,0,5.4
37.406,2724768.872,-0.0667,0.07747,9.87249,1,0,5.4
37.427,2724768.891,-0.05474,0.09422,9.87967,1,0,5.4
37.445,2724768.91,-0.05952,0.08225,9.89402,1,0,5.4
37.463,2724768.929,-0.07149,0.06072,9.87249,1,0,5.4
37.483,2724768.948,-0.05952,0.08465,9.88445,1,0,5.4
37.502,2724768.967,-0.06431,0.07747,9.88445,1,0,5.4
37.519,2724768.986,-0.0667,0.09182,9.88445,1,0,5.4
37.539,2724769.005,-0.06909,0.09422,9.88445,1,0,5.4
37.557,2724769.024,-0.0667,0.07747,9.88206,1,0,5.4
37.578,2724769.043,-0.06909,0.08704,9.88445,1,0,5.4
37.597,2724769.062,-0.05713,0.08465,9.87488,1,0,5.4
37.615,2724769.081,-0.0667,0.07029,9.87249,1,0,5.4
37.636,2724769.1,-0.06909,0.08465,9.88206,1,0,5.4
37.654,2724769.119,-0.0667,0.07747,9.88445,1,0,5.4
37.672,2724769.139,-0.06431,0.07986,9.87249,1,0,5.4
37.695,2724769.158,-0.07149,0.08225,9.88445,1,0,5.4
37.71,2724769.177,-0.05952,0.07986,9.88206,1,0,5.4
37.729,2724769.196,-0.05952,0.08465,9.88445,1,0,5.4
37.748,2724769.215,-0.06431,0.07268,9.87488,1,0,5.4
37.768,2724769.234,-0.0667,0.08704,9.88445,1,0,5.4
37.787,2724769.253,-0.07627,0.08225,9.87727,1,0,5.4
37.806,2724769.272,-0.07388,0.08225,9.87727,1,0,5.4
37.824,2724769.291,-0.07388,0.07747,9.88445,1,0,5.4
37.846,2724769.31,-0.0667,0.08465,9.88684,1,0,5.4
37.861,2724769.329,-0.06909,0.07507,9.88206,1,0,5.4
37.881,2724769.348,-0.07149,0.07747,9.88684,1,0,5.4
37.9,2724769.367,-0.07388,0.08704,9.87727,1,0,5.4
37.918,2724769.386,-0.05474,0.09422,9.88684,1,0,5.4
37.937,2724769.405,-0.06431,0.07268,9.87967,1,0,5.4
37.957,2724769.424,-0.05713,0.07986,9.88684,1,0,5.4
37.977,2724769.443,-0.0667,0.09182,9.88924,1,0,5.4
37.995,2724769.462,-0.05713,0.07986,9.87967,1,0,5.4
38.013,2724769.481,-0.07149,0.07507,9.87727,1,0,5.4
38.033,2724769.5,-0.0667,0.07507,9.87967,1,0,5.4
38.051,2724769.519,-0.06431,0.07986,9.88445,1,0,5.4
38.071,2724769.538,-0.06431,0.09661,9.87488,1,0,5.4
38.09,2724769.557,-0.06431,0.08465,9.87727,1,0,5.4
38.108,2724769.576,-0.05234,0.08943,9.87727,1,0,5.4
38.128,2724769.595,-0.06431,0.08465,9.88206,1,0,5.4
38.148,2724769.614,-0.06431,0.07747,9.87967,1,0,5.4
38.165,2724769.633,-0.07627,0.08943,9.88684,1,0,5.4
38.185,2724769.652,-0.05952,0.08225,9.87967,1,0,5.4
38.204,2724769.671,-0.06909,0.0679,9.88445,1,0,5.4
38.223,2724769.69,-0.06909,0.07747,9.87967,1,0,5.4
38.242,2724769.709,-0.0667,0.07268,9.88206,1,0,5.4
38.26,2724769.728,-0.06909,0.08465,9.87727,1,0,5.4
38.28,2724769.747,-0.05713,0.09422,9.88206,1,0,5.4
38.3,2724769.766,-0.06191,0.08225,9.88684,1,0,5.4
38.319,2724769.785,-0.06909,0.09182,9.88206,1,0,5.4
38.338,2724769.804,-0.07627,0.08704,9.87967,1,0,5.4
38.357,2724769.823,-0.0667,0.08465,9.87967,1,0,5.4
38.38,2724769.842,-0.07627,0.07747,9.88445,1,0,5.4
38.394,2724769.861,-0.06909,0.08465,9.87249,1,0,5.4
38.414,2724769.88,-0.06909,0.07268,9.88206,1,0,5.4
38.436,2724769.899,-0.05952,0.09182,9.87727,1,0,5.4
38.456,2724769.918,-0.05952,0.08465,9.87727,1,0,5.4
38.471,2724769.937,-0.05952,0.07747,9.89881,1,0,5.4
38.49,2724769.956,-0.0667,0.08704,9.87009,1,0,5.4
38.509,2724769.975,-0.06191,0.07986,9.88445,1,0,5.4
38.529,2724769.994,-0.05952,0.07986,9.87488,1,0,5.4
38.547,2724770.013,-0.06191,0.08943,9.88684,1,0,5.4
38.566,2724770.032,-0.06909,0.07986,9.87249,1,0,5.4
38.586,2724770.051,-0.05952,0.09182,9.87967,1,0,5.4
38.605,2724770.071,-0.07627,0.08704,9.88684,1,0,5.4
38.625,2724770.09,-0.06909,0.08704,9.87488,1,0,5.4
38.643,2724770.109,-0.06431,0.08225,9.87727,1,0,5.4
38.66,2724770.128,-0.08106,0.07986,9.88206,1,0,5.4
38.681,2724770.147,-0.0667,0.07747,9.88684,1,0,5.4
38.7,2724770.166,-0.06909,0.08704,9.87009,1,0,5.4
38.719,2724770.185,-0.0667,0.07268,9.88445,1,0,5.4
38.736,2724770.204,-0.07388,0.08704,9.87488,1,0,5.4
38.758,2724770.223,-0.0667,0.08943,9.87967,1,0,5.4
38.775,2724770.242,-0.0667,0.08225,9.88206,1,0,5.4
38.795,2724770.261,-0.07388,0.07986,9.88684,1,0,5.4
38.812,2724770.28,-0.06431,0.07268,9.88924,1,0,5.4
38.831,2724770.299,-0.06909,0.09182,9.87727,1,0,5.4
38.851,2724770.318,-0.06191,0.07507,9.88206,1,0,5.4
38.87,2724770.337,-0.06191,0.07507,9.87249,1,0,5.4
38.889,2724770.356,-0.07627,0.08465,9.88206,1,0,5.4
38.909,2724770.375,-0.06191,0.07986,9.87249,1,0,5.4
38.928,2724770.394,-0.07627,0.07747,9.88924,1,0,5.4
38.946,2724770.413,-0.0667,0.07986,9.87488,1,0,5.4
38.965,2724770.432,-0.07627,0.06072,9.87967,1,0,5.4
38.984,2724770.451,-0.07388,0.09182,9.87249,1,0,5.4
39.003,2724770.47,-0.0667,0.08225,9.88684,1,0,5.4
39.022,2724770.489,-0.06431,0.07986,9.87727,1,0,5.4
39.04,2724770.508,-0.07388,0.07747,9.87967,1,0,5.4
39.061,2724770.527,-0.07149,0.08465,9.87967,1,0,5.4
39.079,2724770.546,-0.07866,0.08943,9.87967,1,0,5.4
39.1,2724770.565,-0.06191,0.07507,9.88206,1,0,5.4
39.117,2724770.584,-0.07388,0.08704,9.88206,1,0,5.4
39.137,2724770.603,-0.0667,0.07268,9.89163,1,0,5.4
39.156,2724770.622,-0.06909,0.07747,9.88445,1,0,5.4
39.175,2724770.641,-0.06909,0.07507,9.88206,1,0,5.4
39.193,2724770.66,-0.07388,0.07268,9.88206,1,0,5.4
39.212,2724770.679,-0.06909,0.08465,9.88445,1,0,5.4
39.231,2724770.698,-0.07627,0.08225,9.87488,1,0,5.4
39.253,2724770.717,-0.06191,0.07268,9.88684,1,0,5.4
39.269,2724770.736,-0.07866,0.07268,9.88445,1,0,5.4
39.291,2724770.755,-0.06909,0.07507,9.88206,1,0,5.4
39.308,2724770.774,-0.0667,0.08465,9.88206,1,0,5.4
39.329,2724770.793,-0.05952,0.07507,9.88206,1,0,5.4
39.346,2724770.812,-0.05474,0.08225,9.88445,1,0,5.4
39.364,2724770.831,-0.05952,0.08704,9.87249,1,0,5.4
39.384,2724770.85,-0.05952,0.08704,9.87727,1,0,5.4
39.403,2724770.869,-0.06909,0.0655,9.87967,1,0,5.4
39.422,2724770.888,-0.06191,0.08465,9.87009,1,0,5.4
39.441,2724770.907,-0.06191,0.08704,9.88684,1,0,5.4
39.46,2724770.926,-0.06191,0.08943,9.87009,1,0,5.4
39.481,2724770.945,-0.0667,0.08704,9.87727,1,0,5.4
39.499,2724770.964,-0.06909,0.07986,9.87727,1,0,5.4
39.518,2724770.983,-0.07149,0.07986,9.87727,1,0,5.4
39.537,2724771.003,-0.07388,0.07986,9.88924,1,0,5.4
39.561,2724771.022,-0.0667,0.08704,9.87967,1,0,5.4
39.58,2724771.041,-0.08106,0.07029,9.88684,1,0,5.4
39.594,2724771.06,-0.0667,0.08225,9.87727,1,0,5.4
39.612,2724771.079,-0.06909,0.09182,9.87488,1,0,5.4
39.63,2724771.098,-0.0667,0.08704,9.88445,1,0,5.4
39.651,2724771.117,-0.05713,0.09182,9.88924,1,0,5.4
39.671,2724771.136,-0.07388,0.08704,9.87727,1,0,5.4
39.689,2724771.155,-0.05952,0.07507,9.88924,1,0,5.4
39.708,2724771.174,-0.0667,0.08943,9.87967,1,0,5.4
39.732,2724771.193,-0.06431,0.08465,9.88206,1,0,5.4
39.748,2724771.212,-0.06431,0.08704,9.88206,1,0,5.4
39.769,2724771.231,-0.05713,0.08465,9.88924,1,0,5.4
39.785,2724771.25,-0.06431,0.09422,9.87488,1,0,5.4
39.803,2724771.269,-0.0667,0.08465,9.88206,1,0,5.4
39.822,2724771.288,-0.06191,0.07268,9.87967,1,0,5.4
39.842,2724771.307,-0.06431,0.08225,9.88445,1,0,5.4
39.859,2724771.326,-0.06909,0.07747,9.87727,1,0,5.4
39.877,2724771.345,-0.05952,0.0679,9.87967,1,0,5.4
39.897,2724771.364,-0.0667,0.08225,9.88206,1,0,5.4
39.918,2724771.383,-0.08106,0.08225,9.88924,1,0,5.4
39.942,2724771.402,-0.07388,0.07029,9.88445,1,0,5.4
39.96,2724771.421,-0.06191,0.08943,9.88445,1,0,5.4
39.975,2724771.44,-0.06191,0.07747,9.88206,1,0,5.4
39.994,2724771.459,-0.06431,0.08225,9.88445,1,0,5.4
40.012,2724771.478,-0.06431,0.07747,9.88206,1,0,5.4
40.03,2724771.497,-0.06191,0.07747,9.87967,1,0,5.4
40.055,2724771.516,-0.05952,0.09422,9.87727,1,0,5.4
40.072,2724771.535,-0.06191,0.08704,9.87488,1,0,5.4
40.094,2724771.554,-0.07627,0.07986,9.88445,1,0,5.4
40.113,2724771.573,-0.07149,0.08943,9.89163,1,0,5.4
40.126,2724771.592,-0.0667,0.07747,9.87967,1,0,5.4
40.145,2724771.611,-0.06909,0.08943,9.88445,1,0,5.4
40.164,2724771.63,-0.0667,0.08225,9.88445,1,0,5.4
40.184,2724771.649,-0.06191,0.08943,9.87727,1,0,5.4
40.202,2724771.668,-0.0667,0.07747,9.87967,1,0,5.4
40.221,2724771.687,-0.0667,0.07507,9.88684,1,0,5.4
40.238,2724771.706,-0.06909,0.08943,9.89402,1,0,5.4
40.258,2724771.725,-0.07388,0.08225,9.87967,1,0,5.4
40.277,2724771.744,-0.08106,0.07747,9.88445,1,0,5.4
40.298,2724771.763,-0.06431,0.07507,9.87967,1,0,5.4
40.317,2724771.782,-0.0667,0.08465,9.88206,1,0,5.4
40.34,2724771.801,-0.0667,0.07986,9.87488,1,0,5.4
40.355,2724771.82,-0.06909,0.08225,9.88924,1,0,5.4
40.374,2724771.839,-0.07388,0.07268,9.88924,1,0,5.4
40.395,2724771.858,-0.06191,0.08225,9.88206,1,0,5.4
40.415,2724771.877,-0.06431,0.08465,9.87967,1,0,5.4
40.432,2724771.896,-0.07388,0.08943,9.89163,1,0,5.4
40.451,2724771.915,-0.06191,0.08704,9.87727,1,0,5.4
40.472,2724771.935,-0.06431,0.07507,9.88445,1,0,5.4
40.492,2724771.954,-0.05713,0.07029,9.87488,1,0,5.4
40.51,2724771.973,-0.06909,0.08225,9.89402,1,0,5.4
40.526,2724771.992,-0.0667,0.07268,9.87009,1,0,5.4
40.548,2724772.011,-0.06431,0.07986,9.89163,1,0,5.4
40.564,2724772.03,-0.07627,0.07747,9.88206,1,0,5.4
40.584,2724772.049,-0.06191,0.07986,9.88684,1,0,5.4
40.606,2724772.068,-0.0667,0.09422,9.87967,1,0,5.4
40.62,2724772.087,-0.07149,0.09422,9.88445,1,0,5.4
40.639,2724772.106,-0.06191,0.07747,9.88206,1,0,5.4
40.658,2724772.125,-0.06191,0.07747,9.87488,1,0,5.4
40.683,2724772.144,-0.06191,0.08704,9.87727,1,0,5.4
40.698,2724772.163,-0.0667,0.07507,9.88924,1,0,5.4
40.716,2724772.182,-0.07388,0.07268,9.87727,1,0,5.4
40.74,2724772.201,-0.06909,0.07986,9.87727,1,0,5.4
40.756,2724772.22,-0.06431,0.08465,9.88206,1,0,5.4
40.776,2724772.239,-0.06909,0.08943,9.87967,1,0,5.4
40.795,2724772.258,-0.07627,0.08225,9.88924,1,0,5.4
40.812,2724772.277,-0.0667,0.09182,9.87967,1,0,5.4
40.832,2724772.296,-0.06909,0.07507,9.88206,1,0,5.4
40.85,2724772.315,-0.06431,0.07507,9.88924,1,0,5.4
40.87,2724772.334,-0.07149,0.08943,9.87967,1,0,5.4
40.888,2724772.353,-0.06191,0.08225,9.88924,1,0,5.4
40.907,2724772.372,-0.06909,0.08465,9.87727,1,0,5.4
40.926,2724772.391,-0.06909,0.08465,9.88206,1,0,5.4
40.944,2724772.41,-0.07388,0.09422,9.88206,1,0,5.4
40.963,2724772.429,-0.0667,0.09182,9.87727,1,0,5.4
40.983,2724772.448,-0.07388,0.08704,9.87967,1,0,5.4
41.001,2724772.467,-0.06909,0.07507,9.88445,1,0,5.4
41.019,2724772.486,-0.07388,0.07029,9.88206,1,0,5.4
41.037,2724772.505,-0.0667,0.07029,9.87967,1,0,5.4
41.072,2724772.524,-0.05713,0.08225,9.87967,1,0,5.4
41.077,2724772.543,-0.07866,0.08943,9.87488,1,0,5.4
41.101,2724772.562,-0.06191,0.08704,9.88445,1,0,5.4
41.115,2724772.581,-0.07149,0.08943,9.87249,1,0,5.4
41.135,2724772.6,-0.05234,0.07747,9.88684,1,0,5.4
41.154,2724772.619,-0.05952,0.08225,9.87727,1,0,5.4
41.173,2724772.638,-0.07388,0.08465,9.88684,1,0,5.4
41.193,2724772.657,-0.06431,0.09182,9.87249,1,0,5.4
41.211,2724772.676,-0.07149,0.08465,9.88924,1,0,5.4
41.228,2724772.695,-0.0667,0.09661,9.87249,1,0,5.4
41.248,2724772.714,-0.06191,0.07029,9.88684,1,0,5.4
41.271,2724772.733,-0.06431,0.08704,9.88924,1,0,5.4
41.29,2724772.752,-0.05952,0.09661,9.87727,1,0,5.4
41.307,2724772.771,-0.07149,0.0679,9.87727,1,0,5.4
41.325,2724772.79,-0.07149,0.07986,9.88445,1,0,5.4
41.344,2724772.809,-0.06909,0.07747,9.88206,1,0,5.4
41.362,2724772.828,-0.05952,0.08704,9.88206,1,0,5.4
41.382,2724772.847,-0.06431,0.07747,9.89163,1,0,5.4
41.402,2724772.867,-0.0667,0.08225,9.88924,1,0,5.4
41.421,2724772.886,-0.0667,0.0655,9.88445,1,0,5.4
41.437,2724772.905,-0.07149,0.08465,9.88445,1,0,5.4
41.458,2724772.924,-0.05952,0.07507,9.88206,1,0,5.4
41.479,2724772.943,-0.05713,0.09661,9.89163,1,0,5.4
41.497,2724772.962,-0.06909,0.08465,9.87967,1,0,5.4
41.514,2724772.981,-0.0667,0.08704,9.88445,1,0,5.4
41.535,2724773.0,-0.07388,0.07507,9.87727,1,0,5.4
41.557,2724773.019,-0.07388,0.07507,9.87967,1,0,5.4
41.573,2724773.038,-0.06909,0.08943,9.87967,1,0,5.4
41.591,2724773.057,-0.06431,0.08943,9.88445,1,0,5.4
41.611,2724773.076,-0.07388,0.07986,9.88684,1,0,5.4
41.632,2724773.095,-0.0667,0.08704,9.87009,1,0,5.4
41.648,2724773.114,-0.07388,0.07747,9.88206,1,0,5.4
41.667,2724773.133,-0.0667,0.08225,9.87967,1,0,5.4
41.687,2724773.152,-0.0667,0.07268,9.88206,1,0,5.4
41.706,2724773.171,-0.06909,0.07747,9.87967,1,0,5.4
41.728,2724773.19,-0.06909,0.09182,9.89402,1,0,5.4
41.742,2724773.209,-0.06909,0.08943,9.87727,1,0,5.4
41.762,2724773.228,-0.06431,0.1014,9.88684,1,0,5.4
41.781,2724773.247,-0.06909,0.08704,9.87967,1,0,5.4
41.801,2724773.266,-0.08106,0.099,9.88445,1,0,5.4
41.818,2724773.285,-0.07388,0.07986,9.87488,1,0,5.4
41.838,2724773.304,-0.06431,0.08943,9.87727,1,0,5.4
41.861,2724773.323,-0.06431,0.07507,9.87967,1,0,5.4
41.878,2724773.342,-0.07627,0.08704,9.87249,1,0,5.4
41.898,2724773.361,-0.07388,0.08465,9.88684,1,0,5.4
41.913,2724773.38,-0.07149,0.09422,9.87249,1,0,5.4
41.934,2724773.399,-0.0667,0.08465,9.88445,1,0,5.4
41.956,2724773.418,-0.07627,0.09422,9.86531,1,0,5.4
41.975,2724773.437,-0.06909,0.07268,9.88445,1,0,5.4
41.994,2724773.456,-0.07388,0.07507,9.87249,1,0,5.4
42.011,2724773.475,-0.0667,0.08225,9.88445,1,0,5.4
42.031,2724773.494,-0.06909,0.08704,9.88924,1,0,5.4
42.047,2724773.513,-0.0667,0.07268,9.87727,1,0,5.4
42.067,2724773.532,-0.07627,0.07986,9.88206,1,0,5.4
42.085,2724773.551,-0.0667,0.09182,9.88206,1,0,5.4
42.11,2724773.57,-0.07149,0.07507,9.88445,1,0,5.4
42.123,2724773.589,-0.06909,0.08465,9.87967,1,0,5.4
42.142,2724773.608,-0.05713,0.08943,9.88206,1,0,5.4
42.16,2724773.627,-0.07149,0.08704,9.87488,1,0,5.4
42.181,2724773.646,-0.06431,0.08943,9.87488,1,0,5.4
42.2,2724773.665,-0.05713,0.08704,9.88206,1,0,5.4
42.222,2724773.684,-0.05474,0.08465,9.87249,1,0,5.4
42.238,2724773.703,-0.0667,0.07986,9.88206,1,0,5.4
42.26,2724773.722,-0.07149,0.07268,9.87488,1,0,5.4
42.277,2724773.741,-0.07149,0.08704,9.88445,1,0,5.4
42.299,2724773.76,-0.07149,0.07507,9.87727,1,0,5.4
42.312,2724773.779,-0.06191,0.08943,9.87249,1,0,5.4
42.333,2724773.799,-0.06431,0.08943,9.88206,1,0,5.4
42.352,2724773.818,-0.08345,0.07986,9.88206,1,0,5.4
42.372,2724773.837,-0.07149,0.07747,9.88206,1,0,5.4
42.394,2724773.856,-0.07866,0.07029,9.88206,1,0,5.4
42.412,2724773.875,-0.07627,0.09182,9.88684,1,0,5.4
42.432,2724773.894,-0.0667,0.07986,9.87727,1,0,5.4
42.446,2724773.913,-0.06191,0.08225,9.87967,1,0,5.4
42.466,2724773.932,-0.06191,0.07986,9.88206,1,0,5.4
42.49,2724773.951,-0.05952,0.08704,9.87967,1,0,5.4
42.504,2724773.97,-0.06909,0.08704,9.89163,1,0,5.4
42.528,2724773.989,-0.07149,0.08943,9.87967,1,0,5.4
42.54,2724774.008,-0.07388,0.07986,9.88445,1,0,5.4
42.562,2724774.027,-0.0667,0.07986,9.88445,1,0,5.4
42.58,2724774.046,-0.05952,0.07507,9.87967,1,0,5.4
42.599,2724774.065,-0.06191,0.08225,9.87727,1,0,5.4
42.617,2724774.084,-0.06909,0.08225,9.87488,1,0,5.4
42.638,2724774.103,-0.05474,0.07507,9.88445,1,0,5.4
42.656,2724774.122,-0.0667,0.07747,9.87249,1,0,5.4
42.676,2724774.141,-0.07388,0.07507,9.88684,1,0,5.4
42.698,2724774.16,-0.07866,0.07986,9.87249,1,0,5.4
42.714,2724774.179,-0.0667,0.08465,9.88684,1,0,5.4
42.732,2724774.198,-0.07149,0.07747,9.88206,1,0,5.4
42.755,2724774.217,-0.06431,0.08225,9.88684,1,0,5.4
42.776,2724774.236,-0.05952,0.08704,9.87727,1,0,5.4
42.791,2724774.255,-0.0667,0.08465,9.88206,1,0,5.4
42.811,2724774.274,-0.07388,0.08465,9.87249,1,0,5.4
42.83,2724774.293,-0.0667,0.08704,9.88445,1,0,5.4
42.846,2724774.312,-0.07149,0.0655,9.87488,1,0,5.4
42.865,2724774.331,-0.0667,0.07507,9.87488,1,0,5.4
42.885,2724774.35,-0.07149,0.07507,9.87967,1,0,5.4
42.903,2724774.369,-0.05952,0.08465,9.87967,1,0,5.4
42.922,2724774.388,-0.06431,0.07268,9.8677,1,0,5.4
42.94,2724774.407,-0.06909,0.07268,9.89163,1,0,5.4
42.961,2724774.426,-0.05952,0.08225,9.87967,1,0,5.4
42.982,2724774.445,-0.07627,0.08943,9.88445,1,0,5.4
42.996,2724774.464,-0.07149,0.07986,9.87488,1,0,5.4
43.018,2724774.483,-0.07149,0.08465,9.88445,1,0,5.4
43.038,2724774.502,-0.0667,0.07747,9.87249,1,0,5.4
43.078,2724774.521,-0.0667,0.07507,9.88445,1,0,5.4
43.079,2724774.54,-0.07627,0.07268,9.87009,1,0,5.4
43.093,2724774.559,-0.06431,0.07507,9.87967,1,0,5.4
43.113,2724774.578,-0.06909,0.08465,9.87249,1,0,5.4
43.131,2724774.597,-0.05952,0.07747,9.89163,1,0,5.4
43.151,2724774.616,-0.06191,0.07507,9.87727,1,0,5.4
43.17,2724774.635,-0.06431,0.08225,9.88924,1,0,5.4
43.189,2724774.654,-0.08824,0.08943,9.87488,1,0,5.4
43.212,2724774.673,-0.06431,0.08943,9.87488,1,0,5.4
43.231,2724774.692,-0.06431,0.07986,9.88924,1,0,5.4
43.245,2724774.711,-0.07627,0.08704,9.88206,1,0,5.4
43.264,2724774.731,-0.07149,0.08225,9.88206,1,0,5.4
43.287,2724774.75,-0.07627,0.09661,9.88684,1,0,5.4
43.307,2724774.769,-0.0667,0.08465,9.88445,1,0,5.4
43.322,2724774.788,-0.0667,0.0679,9.87488,1,0,5.4
43.34,2724774.807,-0.05952,0.09422,9.87727,1,0,5.4
43.358,2724774.826,-0.0667,0.08225,9.87009,1,0,5.4
43.381,2724774.845,-0.06909,0.08225,9.87967,1,0,5.4
43.398,2724774.864,-0.07149,0.07747,9.87727,1,0,5.4
43.417,2724774.883,-0.07149,0.07507,9.87967,1,0,5.4
43.439,2724774.902,-0.07627,0.07507,9.88684,1,0,5.4
43.455,2724774.921,-0.06431,0.07986,9.88206,1,0,5.4
43.474,2724774.94,-0.06191,0.07507,9.87249,1,0,5.4
43.495,2724774.959,-0.06909,0.09422,9.87967,1,0,5.4
43.513,2724774.978,-0.0667,0.08465,9.87009,1,0,5.4
43.532,2724774.997,-0.06909,0.07747,9.88684,1,0,5.4
43.554,2724775.016,-0.05952,0.07507,9.87967,1,0,5.4
43.569,2724775.035,-0.07866,0.08704,9.88445,1,0,5.4
43.589,2724775.054,-0.07149,0.07507,9.87488,1,0,5.4
43.612,2724775.073,-0.06909,0.07986,9.88684,1,0,5.4
43.629,2724775.092,-0.07627,0.07986,9.87727,1,0,5.4
43.647,2724775.111,-0.06431,0.08465,9.87727,1,0,5.4
43.664,2724775.13,-0.07388,0.07507,9.88206,1,0,5.4
43.684,2724775.149,-0.07627,0.09422,9.87488,1,0,5.4
43.703,2724775.168,-0.06909,0.08225,9.89163,1,0,5.4
43.721,2724775.187,-0.06431,0.08465,9.87488,1,0,5.4
43.741,2724775.206,-0.07388,0.08943,9.87967,1,0,5.4
43.758,2724775.225,-0.06909,0.07507,9.88206,1,0,5.4
43.784,2724775.244,-0.06909,0.07986,9.88206,1,0,5.4
43.798,2724775.263,-0.07149,0.08225,9.88684,1,0,5.4
43.816,2724775.282,-0.06191,0.07986,9.87727,1,0,5.4
43.836,2724775.301,-0.06909,0.08225,9.88924,1,0,5.4
43.859,2724775.32,-0.06431,0.07268,9.87967,1,0,5.4
43.873,2724775.339,-0.06431,0.07507,9.88684,1,0,5.4
43.895,2724775.358,-0.06909,0.07986,9.87967,1,0,5.4
43.912,2724775.377,-0.0667,0.08943,9.88206,1,0,5.4
43.93,2724775.396,-0.07388,0.08225,9.88445,1,0,5.4
43.95,2724775.415,-0.07866,0.09661,9.87249,1,0,5.4
43.969,2724775.434,-0.05952,0.09182,9.88445,1,0,5.4
43.99,2724775.453,-0.06909,0.07986,9.88206,1,0,5.4
44.006,2724775.472,-0.07627,0.08704,9.88445,1,0,5.4
44.025,2724775.491,-0.06909,0.08225,9.87488,1,0,5.4
44.045,2724775.51,-0.07149,0.07268,9.88445,1,0,5.4
44.063,2724775.529,-0.07388,0.07747,9.87249,1,0,5.4
44.082,2724775.548,-0.06909,0.07268,9.88445,1,0,5.4
44.101,2724775.567,-0.06909,0.08225,9.88684,1,0,5.4
44.121,2724775.586,-0.06431,0.07029,9.88684,1,0,5.4
44.138,2724775.605,-0.07866,0.09182,9.88206,1,0,5.4
44.159,2724775.624,-0.0667,0.08225,9.87727,1,0,5.4
44.179,2724775.643,-0.06909,0.09182,9.88445,1,0,5.4
44.198,2724775.663,-0.07388,0.08465,9.88445,1,0,5.4
44.215,2724775.682,-0.07866,0.07986,9.88445,1,0,5.4
44.236,2724775.701,-0.0667,0.07268,9.87727,1,0,5.4
44.255,2724775.72,-0.07388,0.09182,9.87967,1,0,5.4
44.275,2724775.739,-0.0667,0.09661,9.88206,1,0,5.4
44.295,2724775.758,-0.07866,0.08465,9.87727,1,0,5.4
44.314,2724775.777,-0.06191,0.08465,9.89402,1,0,5.4
44.332,2724775.796,-0.06191,0.08225,9.87488,1,0,5.4
44.35,2724775.815,-0.06431,0.08225,9.88206,1,0,5.4
44.369,2724775.834,-0.07388,0.09182,9.87967,1,0,5.4
44.391,2724775.853,-0.07388,0.09182,9.87727,1,0,5.4
44.407,2724775.872,-0.07149,0.09182,9.87488,1,0,5.4
44.426,2724775.891,-0.0667,0.09422,9.87967,1,0,5.4
44.443,2724775.91,-0.06191,0.08704,9.88445,1,0,5.4
