AppTimestamp(s),SensorTimestamp(s),Acc_X,Acc_Y,Acc_Z,Label,Latitude,Longitude
0.077,2730088.695,-0.04277,0.0006,9.05833,4,3,6
0.077,2730088.714,-0.05234,-0.0329,9.34337,4,3,6
0.078,2730088.733,-0.04995,-0.08076,9.91795,4,3,6
0.083,2730088.752,-0.05234,-0.13101,10.50449,4,3,6
0.083,2730088.771,-0.03559,-0.14776,10.67917,4,3,6
0.096,2730088.79,-0.02363,-0.10947,10.26042,4,3,6
0.116,2730088.809,-0.00449,-0.04247,9.58744,4,3,6
0.134,2730088.828,0.01466,0.01017,9.15673,4,3,6
0.149,2730088.847,-0.06431,-0.00658,9.16631,4,3,6
0.169,2730088.866,-0.14566,-0.05444,9.65444,4,3,6
0.188,2730088.885,-0.09063,-0.0999,10.21705,4,3,6
0.207,2730088.904,0.01944,-0.14776,10.40878,4,3,6
0.227,2730088.923,0.02183,-0.15494,10.40639,4,3,6
0.247,2730088.942,-0.04038,-0.14297,10.15484,4,3,6
0.264,2730088.961,-0.08345,-0.07358,9.78635,4,3,6
0.282,2730088.98,-0.08106,-0.02572,9.47259,4,3,6
0.302,2730089.0,-0.03799,-0.02094,9.42712,4,3,6
0.322,2730089.019,-0.0332,-0.06401,9.63291,4,3,6
0.34,2730089.038,-0.03081,-0.10229,9.96102,4,3,6
0.36,2730089.057,-0.03559,-0.12383,10.1668,4,3,6
0.379,2730089.076,-0.05713,-0.12144,10.22423,4,3,6
0.398,2730089.095,-0.07627,-0.10947,10.09263,4,3,6
0.416,2730089.114,-0.05474,-0.0999,9.87727,4,3,6
0.435,2730089.133,-0.02124,-0.06879,9.67358,4,3,6
0.454,2730089.152,0.0003,-0.06162,9.60658,4,3,6
0.474,2730089.171,-0.04516,-0.06401,9.69303,4,3,6
0.493,2730089.19,-0.08106,-0.07836,9.88445,4,3,6
0.511,2730089.209,-0.07149,-0.10469,10.03998,4,3,6
0.532,2730089.228,-0.01406,-0.10469,10.11416,4,3,6
0.549,2730089.247,-0.01406,-0.11665,10.03281,4,3,6
0.568,2730089.266,-0.05234,-0.08554,9.88924,4,3,6
0.587,2730089.285,-0.06909,-0.08554,9.75045,4,3,6
0.606,2730089.304,-0.0667,-0.05683,9.68824,4,3,6
0.626,2730089.323,-0.0332,-0.0664,9.7696,4,3,6
0.644,2730089.342,-0.02602,-0.09033,9.89163,4,3,6
0.663,2730089.361,-0.03799,-0.12622,9.99213,4,3,6
0.685,2730089.38,-0.06191,-0.10469,10.02802,4,3,6
0.701,2730089.399,-0.06191,-0.09751,9.96102,4,3,6
0.72,2730089.418,-0.05234,-0.08794,9.87009,4,3,6
0.74,2730089.437,-0.03559,-0.09033,9.79592,4,3,6
0.759,2730089.456,-0.04038,-0.08794,9.77199,4,3,6
0.778,2730089.475,-0.04756,-0.08315,9.81745,4,3,6
0.797,2730089.494,-0.04756,-0.10708,9.89881,4,3,6
0.815,2730089.513,-0.04756,-0.10229,9.95624,4,3,6
0.835,2730089.532,-0.05234,-0.09272,9.9682,4,3,6
0.854,2730089.551,-0.02602,-0.0999,9.91795,4,3,6
0.874,2730089.57,-0.03081,-0.09033,9.86052,4,3,6
0.892,2730089.589,-0.07149,-0.00419,8.87408,4,3,6
0.911,2730089.608,-0.02841,-0.12622,11.32074,4,3,6
0.929,2730089.627,-0.02124,-0.11426,9.25963,4,3,6
0.948,2730089.646,-0.08106,-0.12861,9.95863,4,3,6
0.969,2730089.665,-0.00927,-0.09033,9.86292,4,3,6
0.987,2730089.684,-0.05952,-0.04008,10.01845,4,3,6
1.006,2730089.703,-0.04995,-0.04487,9.74327,4,3,6
1.026,2730089.722,-0.04756,-0.11904,10.08545,4,3,6
1.044,2730089.741,-0.03799,-0.11904,9.70738,4,3,6
1.064,2730089.76,-0.04995,-0.10708,9.90838,4,3,6
1.083,2730089.779,-0.03799,-0.08794,9.86531,4,3,6
1.101,2730089.798,-0.06431,-0.05683,9.8677,4,3,6
1.121,2730089.817,-0.03799,-0.06879,9.89163,4,3,6
1.14,2730089.836,-0.02363,-0.09751,9.95624,4,3,6
1.164,2730089.855,-0.03081,-0.10947,9.84856,4,3,6
1.178,2730089.874,-0.05713,-0.11426,9.90599,4,3,6
1.197,2730089.893,-0.04516,-0.07597,9.84856,4,3,6
1.216,2730089.913,-0.03559,-0.06401,9.85334,4,3,6
1.235,2730089.932,-0.04038,-0.08794,9.90838,4,3,6
1.254,2730089.951,-0.05234,-0.09272,9.87967,4,3,6
1.275,2730089.97,-0.05952,-0.11665,9.90359,4,3,6
1.292,2730089.989,-0.04277,-0.09511,9.90838,4,3,6
1.311,2730090.008,-0.04756,-0.08315,9.87967,4,3,6
1.329,2730090.027,-0.03799,-0.06879,9.86531,4,3,6
1.348,2730090.046,-0.04995,-0.09272,9.88445,4,3,6
1.368,2730090.065,-0.04756,-0.08554,9.86531,4,3,6
1.386,2730090.084,-0.05713,-0.09511,9.88924,4,3,6
1.409,2730090.103,-0.04277,-0.09511,9.88445,4,3,6
1.425,2730090.122,-0.05713,-0.07597,9.9012,4,3,6
1.444,2730090.141,-0.04516,-0.10469,9.89163,4,3,6
1.462,2730090.16,-0.03559,-0.07597,9.88684,4,3,6
1.483,2730090.179,-0.04516,-0.09751,9.86531,4,3,6
1.502,2730090.198,-0.04516,-0.09751,9.88445,4,3,6
1.521,2730090.217,-0.04516,-0.09272,9.87967,4,3,6
1.539,2730090.236,-0.04038,-0.09033,9.88924,4,3,6
1.558,2730090.255,-0.03799,-0.09033,9.88684,4,3,6
1.576,2730090.274,-0.04995,-0.08794,9.89163,4,3,6
1.599,2730090.293,-0.04756,-0.09033,9.88206,4,3,6
1.615,2730090.312,-0.04277,-0.08794,9.88684,4,3,6
1.634,2730090.331,-0.04516,-0.09511,9.87009,4,3,6
1.654,2730090.35,-0.05713,-0.09272,9.88924,4,3,6
1.672,2730090.369,-0.04756,-0.08794,9.88445,4,3,6
1.691,2730090.388,-0.03799,-0.10229,9.89642,4,3,6
1.71,2730090.407,-0.06909,-0.08076,9.87009,4,3,6
1.729,2730090.426,-0.02124,-0.10708,9.90599,4,3,6
1.75,2730090.445,-0.0332,-0.13579,9.88924,4,3,6
1.768,2730090.464,-0.06191,-0.06162,9.86531,4,3,6
1.788,2730090.483,-0.07149,-0.0664,9.88206,4,3,6
1.806,2730090.502,-0.04756,-0.06162,9.86292,4,3,6
1.827,2730090.521,-0.02363,-0.07836,9.89402,4,3,6
1.843,2730090.54,-0.03081,-0.11665,9.87249,4,3,6
1.865,2730090.559,-0.04038,-0.09272,9.89642,4,3,6
1.884,2730090.578,-0.06909,-0.08315,9.87967,4,3,6
1.9,2730090.597,-0.05952,-0.05922,9.88445,4,3,6
1.92,2730090.616,-0.04038,-0.06879,9.87727,4,3,6
1.939,2730090.635,-0.0332,-0.09511,9.87967,4,3,6
1.957,2730090.654,-0.04277,-0.10469,9.87009,4,3,6
1.976,2730090.673,-0.05713,-0.11186,9.87967,4,3,6
1.994,2730090.692,-0.06191,-0.08076,9.87727,4,3,6
2.016,2730090.711,-0.04756,-0.07836,9.89402,4,3,6
2.034,2730090.73,-0.0332,-0.09511,9.88445,4,3,6
2.054,2730090.749,-0.03081,-0.0999,9.88684,4,3,6
2.091,2730090.768,-0.0332,-0.0999,9.88445,4,3,6
2.092,2730090.787,-0.04995,-0.09511,9.87727,4,3,6
2.109,2730090.807,-0.04995,-0.08554,9.88206,4,3,6
2.127,2730090.826,-0.03799,-0.07836,9.89163,4,3,6
2.147,2730090.845,-0.02363,-0.08076,9.89881,4,3,6
2.166,2730090.864,-0.04277,-0.07597,9.89163,4,3,6
2.186,2730090.883,-0.04756,-0.09751,9.87249,4,3,6
2.205,2730090.902,-0.04995,-0.08315,9.87967,4,3,6
2.224,2730090.921,-0.04277,-0.08794,9.87009,4,3,6
2.243,2730090.94,-0.02841,-0.09033,9.88924,4,3,6
2.262,2730090.959,-0.02602,-0.0999,9.88684,4,3,6
2.281,2730090.978,-0.04038,-0.09033,9.88684,4,3,6
2.3,2730090.997,-0.05952,-0.09511,9.88445,4,3,6
2.319,2730091.016,-0.04995,-0.08076,9.87727,4,3,6
2.338,2730091.035,-0.04277,-0.08794,9.89163,4,3,6
2.356,2730091.054,-0.02124,-0.09751,9.88684,4,3,6
2.377,2730091.073,-0.03081,-0.09033,9.88684,4,3,6
2.395,2730091.092,-0.04995,-0.09751,9.88684,4,3,6
2.414,2730091.111,-0.04756,-0.09272,9.88206,4,3,6
2.432,2730091.13,-0.04277,-0.08076,9.87967,4,3,6
2.451,2730091.149,-0.02363,-0.08794,9.88445,4,3,6
2.471,2730091.168,-0.04277,-0.08554,9.88684,4,3,6
2.49,2730091.187,-0.05474,-0.09272,9.88206,4,3,6
2.509,2730091.206,-0.05952,-0.09033,9.87727,4,3,6
2.526,2730091.225,-0.04995,-0.08554,9.88684,4,3,6
2.546,2730091.244,-0.03081,-0.08794,9.88206,4,3,6
2.567,2730091.263,-0.04277,-0.09511,9.89642,4,3,6
2.585,2730091.282,-0.03799,-0.10708,9.88206,4,3,6
2.629,2730091.301,-0.04756,-0.09272,9.87967,4,3,6
2.63,2730091.32,-0.04038,-0.09033,9.87249,4,3,6
2.642,2730091.339,-0.0332,-0.09272,9.88445,4,3,6
2.663,2730091.358,-0.03081,-0.09511,9.88684,4,3,6
2.681,2730091.377,-0.04995,-0.09511,9.88445,4,3,6
2.7,2730091.396,-0.04995,-0.08554,9.87727,4,3,6
2.719,2730091.415,-0.04756,-0.09751,9.87488,4,3,6
2.739,2730091.434,-0.04995,-0.09511,9.87967,4,3,6
2.76,2730091.453,-0.0332,-0.09033,9.88684,4,3,6
2.778,2730091.472,-0.04038,-0.08554,9.88445,4,3,6
2.799,2730091.491,-0.04995,-0.09511,9.89163,4,3,6
2.817,2730091.51,-0.05234,-0.08554,9.88206,4,3,6
2.832,2730091.529,-0.04038,-0.09033,9.88206,4,3,6
2.852,2730091.548,-0.03799,-0.08315,9.88924,4,3,6
2.871,2730091.567,-0.0332,-0.08315,9.87488,4,3,6
2.893,2730091.586,-0.03559,-0.08794,9.88924,4,3,6
2.909,2730091.605,-0.05474,-0.06879,9.87727,4,3,6
2.928,2730091.624,-0.04516,-0.09033,9.87967,4,3,6
2.947,2730091.643,-0.03559,-0.08794,9.88206,4,3,6
2.966,2730091.662,-0.03799,-0.09511,9.88924,4,3,6
2.984,2730091.681,-0.03799,-0.08554,9.88924,4,3,6
3.004,2730091.7,-0.05713,-0.09272,9.88684,4,3,6
3.022,2730091.72,-0.05474,-0.08794,9.88206,4,3,6
3.042,2730091.739,-0.04277,-0.07358,9.88924,4,3,6
3.062,2730091.758,-0.04516,-0.09033,9.87488,4,3,6
3.085,2730091.777,-0.04756,-0.08554,9.88924,4,3,6
3.1,2730091.796,-0.04756,-0.09511,9.88924,4,3,6
3.118,2730091.815,-0.05234,-0.09033,9.87009,4,3,6
3.138,2730091.834,-0.04038,-0.08315,9.88445,4,3,6
3.18,2730091.853,-0.04277,-0.0999,9.87727,4,3,6
3.182,2730091.872,-0.0332,-0.08554,9.88206,4,3,6
3.195,2730091.891,-0.03799,-0.09033,9.88206,4,3,6
3.214,2730091.91,-0.04995,-0.09033,9.88445,4,3,6
3.233,2730091.929,-0.05713,-0.09511,9.87727,4,3,6
3.251,2730091.948,-0.04516,-0.07597,9.89163,4,3,6
3.272,2730091.967,-0.04038,-0.08794,9.87727,4,3,6
3.289,2730091.986,-0.03559,-0.08554,9.88924,4,3,6
3.309,2730092.005,-0.05474,-0.0999,9.87967,4,3,6
3.327,2730092.024,-0.04995,-0.09751,9.87488,4,3,6
3.348,2730092.043,-0.03799,-0.08794,9.88684,4,3,6
3.366,2730092.062,-0.03559,-0.09033,9.87967,4,3,6
3.386,2730092.081,-0.04995,-0.09033,9.88206,4,3,6
3.404,2730092.1,-0.05474,-0.09751,9.88445,4,3,6
3.423,2730092.119,-0.04038,-0.08315,9.88206,4,3,6
3.443,2730092.138,-0.04038,-0.08794,9.87488,4,3,6
3.462,2730092.157,-0.04756,-0.07119,9.88924,4,3,6
3.482,2730092.176,-0.04516,-0.08554,9.87488,4,3,6
3.499,2730092.195,-0.05234,-0.10229,9.88684,4,3,6
3.524,2730092.214,-0.04038,-0.09511,9.87967,4,3,6
3.537,2730092.233,-0.04756,-0.08794,9.87488,4,3,6
3.556,2730092.252,-0.04756,-0.09272,9.87727,4,3,6
3.575,2730092.271,-0.04756,-0.09033,9.87727,4,3,6
3.597,2730092.29,-0.02841,-0.08554,9.88684,4,3,6
3.613,2730092.309,-0.05474,-0.07836,9.87967,4,3,6
3.633,2730092.328,-0.04995,-0.07597,9.88445,4,3,6
3.651,2730092.347,-0.04995,-0.08315,9.87967,4,3,6
3.672,2730092.366,-0.03559,-0.09751,9.88684,4,3,6
3.688,2730092.385,-0.0332,-0.09511,9.88684,4,3,6
3.707,2730092.404,-0.04038,-0.09272,9.88445,4,3,6
3.729,2730092.423,-0.05234,-0.09272,9.88445,4,3,6
3.748,2730092.442,-0.04756,-0.09272,9.88445,4,3,6
3.767,2730092.461,-0.04277,-0.09511,9.88684,4,3,6
3.784,2730092.48,-0.04516,-0.08315,9.87727,4,3,6
3.804,2730092.499,-0.04038,-0.09033,9.88684,4,3,6
3.824,2730092.518,-0.03799,-0.07597,9.88684,4,3,6
3.842,2730092.537,-0.05234,-0.08794,9.88924,4,3,6
3.861,2730092.556,-0.04277,-0.09272,9.88445,4,3,6
3.884,2730092.575,-0.03799,-0.09033,9.87967,4,3,6
3.904,2730092.594,-0.03559,-0.08554,9.88206,4,3,6
3.917,2730092.613,-0.04277,-0.08794,9.87967,4,3,6
3.937,2730092.633,-0.05234,-0.10229,9.88445,4,3,6
3.956,2730092.652,-0.02841,-0.09272,9.88206,4,3,6
3.975,2730092.671,-0.04756,-0.08315,9.88924,4,3,6
3.994,2730092.69,-0.04277,-0.09511,9.87967,4,3,6
4.013,2730092.709,-0.04277,-0.10229,9.88206,4,3,6
4.031,2730092.728,-0.05474,-0.07836,9.87727,4,3,6
4.051,2730092.747,-0.04756,-0.08076,9.88445,4,3,6
4.071,2730092.766,-0.04756,-0.08794,9.88206,4,3,6
4.088,2730092.785,-0.04277,-0.08794,9.88924,4,3,6
4.108,2730092.804,-0.03799,-0.09511,9.89402,4,3,6
4.128,2730092.823,-0.03799,-0.10469,9.88206,4,3,6
4.146,2730092.842,-0.04277,-0.09511,9.88206,4,3,6
4.164,2730092.861,-0.03799,-0.09033,9.87488,4,3,6
4.182,2730092.88,-0.03799,-0.08315,9.88924,4,3,6
4.202,2730092.899,-0.04756,-0.09272,9.87727,4,3,6
4.223,2730092.918,-0.03799,-0.08794,9.87727,4,3,6
4.241,2730092.937,-0.0332,-0.09033,9.87488,4,3,6
4.265,2730092.956,-0.04516,-0.09511,9.89163,4,3,6
4.282,2730092.975,-0.04038,-0.0999,9.87967,4,3,6
4.298,2730092.994,-0.04038,-0.09272,9.88684,4,3,6
4.316,2730093.013,-0.04516,-0.08794,9.88924,4,3,6
4.336,2730093.032,-0.04516,-0.09033,9.89642,4,3,6
4.355,2730093.051,-0.03799,-0.08794,9.88445,4,3,6
4.375,2730093.07,-0.05234,-0.09511,9.88684,4,3,6
4.396,2730093.089,-0.03799,-0.09272,9.88684,4,3,6
4.412,2730093.108,-0.04756,-0.08076,9.87488,4,3,6
4.431,2730093.127,-0.03559,-0.09272,9.88206,4,3,6
4.452,2730093.146,-0.04277,-0.08076,9.89163,4,3,6
4.471,2730093.165,-0.04038,-0.08554,9.88206,4,3,6
4.488,2730093.184,-0.04277,-0.08554,9.88206,4,3,6
4.509,2730093.203,-0.03559,-0.10469,9.87727,4,3,6
4.527,2730093.222,-0.04756,-0.08794,9.89163,4,3,6
4.55,2730093.241,-0.04995,-0.09511,9.88206,4,3,6
4.564,2730093.26,-0.04038,-0.08554,9.88684,4,3,6
4.586,2730093.279,-0.0332,-0.09033,9.88206,4,3,6
4.602,2730093.298,-0.04277,-0.08315,9.88445,4,3,6
4.626,2730093.317,-0.04038,-0.09272,9.87967,4,3,6
4.64,2730093.336,-0.04756,-0.08794,9.88206,4,3,6
4.659,2730093.355,-0.03799,-0.08554,9.88206,4,3,6
4.679,2730093.374,-0.04516,-0.09033,9.89163,4,3,6
4.698,2730093.393,-0.03799,-0.08554,9.88206,4,3,6
4.716,2730093.412,-0.04995,-0.08315,9.88684,4,3,6
4.736,2730093.431,-0.04516,-0.09511,9.87009,4,3,6
4.755,2730093.45,-0.04756,-0.09033,9.87967,4,3,6
4.774,2730093.469,-0.05474,-0.10229,9.88206,4,3,6
4.792,2730093.488,-0.04516,-0.09751,9.88684,4,3,6
4.812,2730093.507,-0.04516,-0.09272,9.88445,4,3,6
4.829,2730093.527,-0.05234,-0.08794,9.88924,4,3,6
4.85,2730093.546,-0.04516,-0.09272,9.88206,4,3,6
4.871,2730093.565,-0.04995,-0.09033,9.88206,4,3,6
4.887,2730093.584,-0.04516,-0.09511,9.87967,4,3,6
4.907,2730093.603,-0.05713,-0.08315,9.88684,4,3,6
4.926,2730093.622,-0.04038,-0.09511,9.88684,4,3,6
4.951,2730093.641,-0.04277,-0.09272,9.88684,4,3,6
4.964,2730093.66,-0.04038,-0.09511,9.88206,4,3,6
4.985,2730093.679,-0.04756,-0.09751,9.88924,4,3,6
5.001,2730093.698,-0.0332,-0.09511,9.87488,4,3,6
5.021,2730093.717,-0.03081,-0.08315,9.88206,4,3,6
5.039,2730093.736,-0.02602,-0.10229,9.87727,4,3,6
5.06,2730093.755,-0.04277,-0.09033,9.88206,4,3,6
5.084,2730093.774,-0.04038,-0.09033,9.87727,4,3,6
5.099,2730093.793,-0.04756,-0.07597,9.88206,4,3,6
5.116,2730093.812,-0.04038,-0.10469,9.88206,4,3,6
5.135,2730093.831,-0.04756,-0.09511,9.87727,4,3,6
5.175,2730093.85,-0.04277,-0.10229,9.87727,4,3,6
5.176,2730093.869,-0.04277,-0.10229,9.88445,4,3,6
5.192,2730093.888,-0.03799,-0.08076,9.88924,4,3,6
5.211,2730093.907,-0.04516,-0.08794,9.87727,4,3,6
5.229,2730093.926,-0.04995,-0.08315,9.88206,4,3,6
5.247,2730093.945,-0.05234,-0.08794,9.88206,4,3,6
5.267,2730093.964,-0.04277,-0.09272,9.88924,4,3,6
5.287,2730093.983,-0.0332,-0.0999,9.88206,4,3,6
5.307,2730094.002,-0.04516,-0.09751,9.87727,4,3,6
5.326,2730094.021,-0.04756,-0.10708,9.88924,4,3,6
5.344,2730094.04,-0.04516,-0.08554,9.87967,4,3,6
5.364,2730094.059,-0.03799,-0.09272,9.87249,4,3,6
5.387,2730094.078,-0.04516,-0.09751,9.88924,4,3,6
5.402,2730094.097,-0.04756,-0.08315,9.87967,4,3,6
5.42,2730094.116,-0.04756,-0.08315,9.88206,4,3,6
5.439,2730094.135,-0.04038,-0.08315,9.87967,4,3,6
5.461,2730094.154,-0.04756,-0.08554,9.87967,4,3,6
5.479,2730094.173,-0.04277,-0.0999,9.88445,4,3,6
5.496,2730094.192,-0.03559,-0.08315,9.87249,4,3,6
5.515,2730094.211,-0.04038,-0.09751,9.88684,4,3,6
5.534,2730094.23,-0.04038,-0.09272,9.88924,4,3,6
5.553,2730094.249,-0.04277,-0.09272,9.88445,4,3,6
5.573,2730094.268,-0.03799,-0.09511,9.88445,4,3,6
5.591,2730094.287,-0.03559,-0.09033,9.88206,4,3,6
5.61,2730094.306,-0.04277,-0.09272,9.88206,4,3,6
5.632,2730094.325,-0.03559,-0.10229,9.89163,4,3,6
5.647,2730094.344,-0.03799,-0.09033,9.88924,4,3,6
5.67,2730094.363,-0.03799,-0.09272,9.87249,4,3,6
5.688,2730094.382,-0.05474,-0.09033,9.88206,4,3,6
5.711,2730094.401,-0.05474,-0.09272,9.89402,4,3,6
5.726,2730094.42,-0.04277,-0.09272,9.88924,4,3,6
5.744,2730094.44,-0.04516,-0.08794,9.88684,4,3,6
5.768,2730094.459,-0.0332,-0.08554,9.89881,4,3,6
5.781,2730094.478,-0.03799,-0.09511,9.88684,4,3,6
5.799,2730094.497,-0.04277,-0.08315,9.88206,4,3,6
5.82,2730094.516,-0.03799,-0.08315,9.88445,4,3,6
5.844,2730094.535,-0.05952,-0.09511,9.87967,4,3,6
5.857,2730094.554,-0.04995,-0.09033,9.88924,4,3,6
5.88,2730094.573,-0.04756,-0.08794,9.88924,4,3,6
5.896,2730094.592,-0.04277,-0.09272,9.87967,4,3,6
5.914,2730094.611,-0.04516,-0.0999,9.87727,4,3,6
5.935,2730094.63,-0.03799,-0.08554,9.88206,4,3,6
5.954,2730094.649,-0.04277,-0.07836,9.87967,4,3,6
5.972,2730094.668,-0.04516,-0.0999,9.87727,4,3,6
5.991,2730094.687,-0.03559,-0.09751,9.88445,4,3,6
6.01,2730094.706,-0.04516,-0.09033,9.87727,4,3,6
6.028,2730094.725,-0.04995,-0.09033,9.88445,4,3,6
6.048,2730094.744,-0.04756,-0.08076,9.88445,4,3,6
6.07,2730094.763,-0.04038,-0.08794,9.87967,4,3,6
6.086,2730094.782,-0.05234,-0.08554,9.88924,4,3,6
6.105,2730094.801,-0.05234,-0.09511,9.87967,4,3,6
6.124,2730094.82,-0.04277,-0.09272,9.89402,4,3,6
6.142,2730094.839,-0.04277,-0.10229,9.87967,4,3,6
6.162,2730094.858,-0.04516,-0.09511,9.89881,4,3,6
6.181,2730094.877,-0.04277,-0.09511,9.87009,4,3,6
6.199,2730094.896,-0.0332,-0.09033,9.88684,4,3,6
6.219,2730094.915,-0.04038,-0.09272,9.87967,4,3,6
6.242,2730094.934,-0.04516,-0.10708,9.88924,4,3,6
6.26,2730094.953,-0.04277,-0.08794,9.88206,4,3,6
6.28,2730094.972,-0.04516,-0.09751,9.88684,4,3,6
6.295,2730094.991,-0.05234,-0.08554,9.89163,4,3,6
6.317,2730095.01,-0.04516,-0.09511,9.89163,4,3,6
6.332,2730095.029,-0.03799,-0.07836,9.87967,4,3,6
6.353,2730095.048,-0.04277,-0.08794,9.87967,4,3,6
6.371,2730095.067,-0.04995,-0.09272,9.87967,4,3,6
6.393,2730095.086,-0.04277,-0.09272,9.88924,4,3,6
6.408,2730095.105,-0.04277,-0.09751,9.87727,4,3,6
6.431,2730095.124,-0.03799,-0.0999,9.88445,4,3,6
6.448,2730095.143,-0.04277,-0.09751,9.88445,4,3,6
6.467,2730095.162,-0.04756,-0.08315,9.88684,4,3,6
6.487,2730095.181,-0.05234,-0.08076,9.87727,4,3,6
6.507,2730095.2,-0.04756,-0.09272,9.88684,4,3,6
6.525,2730095.219,-0.03559,-0.09272,9.88684,4,3,6
6.547,2730095.238,-0.04516,-0.09033,9.87488,4,3,6
6.562,2730095.257,-0.04995,-0.09272,9.88924,4,3,6
6.586,2730095.276,-0.05474,-0.09751,9.88684,4,3,6
6.602,2730095.295,-0.04995,-0.08315,9.88206,4,3,6
6.618,2730095.314,-0.04756,-0.09033,9.88684,4,3,6
6.639,2730095.333,-0.04516,-0.08554,9.87727,4,3,6
6.66,2730095.353,-0.04277,-0.09033,9.89642,4,3,6
6.676,2730095.372,-0.04756,-0.08554,9.89402,4,3,6
6.693,2730095.391,-0.04038,-0.09751,9.88206,4,3,6
6.718,2730095.41,-0.04756,-0.09751,9.88684,4,3,6
6.734,2730095.429,-0.04995,-0.10469,9.87967,4,3,6
6.752,2730095.448,-0.04995,-0.08076,9.88684,4,3,6
6.771,2730095.467,-0.04516,-0.09511,9.88206,4,3,6
6.793,2730095.486,-0.04995,-0.09272,9.89163,4,3,6
6.81,2730095.505,-0.04038,-0.08794,9.87967,4,3,6
6.827,2730095.524,-0.03799,-0.08794,9.88206,4,3,6
6.85,2730095.543,-0.04756,-0.09751,9.88206,4,3,6
6.87,2730095.562,-0.04995,-0.08794,9.88924,4,3,6
6.887,2730095.581,-0.04756,-0.10469,9.87727,4,3,6
6.905,2730095.6,-0.04038,-0.08554,9.88924,4,3,6
6.924,2730095.619,-0.04756,-0.09511,9.87009,4,3,6
6.941,2730095.638,-0.04756,-0.08794,9.88206,4,3,6
6.96,2730095.657,-0.04277,-0.09272,9.88445,4,3,6
6.981,2730095.676,-0.05234,-0.09033,9.88206,4,3,6
6.999,2730095.695,-0.04756,-0.0999,9.88445,4,3,6
7.016,2730095.714,-0.04756,-0.08554,9.88206,4,3,6
7.037,2730095.733,-0.04756,-0.10229,9.87967,4,3,6
7.056,2730095.752,-0.04038,-0.09272,9.88924,4,3,6
7.076,2730095.771,-0.03799,-0.09751,9.87727,4,3,6
7.099,2730095.79,-0.03559,-0.08794,9.88206,4,3,6
7.113,2730095.809,-0.04516,-0.09272,9.87967,4,3,6
7.131,2730095.828,-0.05474,-0.08076,9.88206,4,3,6
7.151,2730095.847,-0.04516,-0.09033,9.87967,4,3,6
7.175,2730095.866,-0.05234,-0.09033,9.88445,4,3,6
7.187,2730095.885,-0.04756,-0.08554,9.87967,4,3,6
7.207,2730095.904,-0.04516,-0.07597,9.87488,4,3,6
7.227,2730095.923,-0.04756,-0.08315,9.88924,4,3,6
7.248,2730095.942,-0.03799,-0.09033,9.88445,4,3,6
7.265,2730095.961,-0.03799,-0.0999,9.88206,4,3,6
7.283,2730095.98,-0.05474,-0.08794,9.88684,4,3,6
7.303,2730095.999,-0.02841,-0.09033,9.88684,4,3,6
7.322,2730096.018,-0.03559,-0.09033,9.88445,4,3,6
7.341,2730096.037,-0.03081,-0.08794,9.88924,4,3,6
7.36,2730096.056,-0.04277,-0.08794,9.88445,4,3,6
7.383,2730096.075,-0.04995,-0.09751,9.88924,4,3,6
7.398,2730096.094,-0.04277,-0.09033,9.87727,4,3,6
7.419,2730096.113,-0.04038,-0.09751,9.88206,4,3,6
7.436,2730096.132,-0.04038,-0.07836,9.87488,4,3,6
7.456,2730096.151,-0.04038,-0.0999,9.88445,4,3,6
7.476,2730096.17,-0.04277,-0.08794,9.87249,4,3,6
7.493,2730096.189,-0.05234,-0.09511,9.88445,4,3,6
7.512,2730096.208,-0.03559,-0.09272,9.87009,4,3,6
7.531,2730096.227,-0.03799,-0.08794,9.88684,4,3,6
7.55,2730096.247,-0.04756,-0.09511,9.87488,4,3,6
7.569,2730096.266,-0.04756,-0.08554,9.87967,4,3,6
7.59,2730096.285,-0.04995,-0.09511,9.87967,4,3,6
7.61,2730096.304,-0.05474,-0.0999,9.88924,4,3,6
7.629,2730096.323,-0.04995,-0.10229,9.87249,4,3,6
7.646,2730096.342,-0.04995,-0.09033,9.88206,4,3,6
7.669,2730096.361,-0.03799,-0.08794,9.87727,4,3,6
7.683,2730096.38,-0.04516,-0.09272,9.87727,4,3,6
7.703,2730096.399,-0.04516,-0.09511,9.88445,4,3,6
7.722,2730096.418,-0.04516,-0.09751,9.88684,4,3,6
7.745,2730096.437,-0.04756,-0.09751,9.88445,4,3,6
7.763,2730096.456,-0.03799,-0.0999,9.87727,4,3,6
7.78,2730096.475,-0.04277,-0.10469,9.88206,4,3,6
7.801,2730096.494,-0.04516,-0.08554,9.88206,4,3,6
7.82,2730096.513,-0.04277,-0.09033,9.87727,4,3,6
7.835,2730096.532,-0.04277,-0.07836,9.88206,4,3,6
7.858,2730096.551,-0.04516,-0.09272,9.87967,4,3,6
7.875,2730096.57,-0.04516,-0.09272,9.87967,4,3,6
7.894,2730096.589,-0.04038,-0.10229,9.87488,4,3,6
7.911,2730096.608,-0.03799,-0.08794,9.88684,4,3,6
7.93,2730096.627,-0.03559,-0.10947,9.87967,4,3,6
7.951,2730096.646,-0.04516,-0.11186,9.88684,4,3,6
7.971,2730096.665,-0.04038,-0.08554,9.87967,4,3,6
7.988,2730096.684,-0.04277,-0.07836,9.87967,4,3,6
8.007,2730096.703,-0.04277,-0.09511,9.88924,4,3,6
8.03,2730096.722,-0.04038,-0.09272,9.87967,4,3,6
8.046,2730096.741,-0.04277,-0.10229,9.87967,4,3,6
8.064,2730096.76,-0.04995,-0.09511,9.87727,4,3,6
8.083,2730096.779,-0.05234,-0.09272,9.88684,4,3,6
8.102,2730096.798,-0.04995,-0.10229,9.87727,4,3,6
8.121,2730096.817,-0.04038,-0.08076,9.88684,4,3,6
8.14,2730096.836,-0.04038,-0.09511,9.87967,4,3,6
8.16,2730096.855,-0.04038,-0.09751,9.88684,4,3,6
8.179,2730096.874,-0.04995,-0.09511,9.87967,4,3,6
8.2,2730096.893,-0.05713,-0.08794,9.87727,4,3,6
8.216,2730096.912,-0.03559,-0.08794,9.88206,4,3,6
8.236,2730096.931,-0.0332,-0.09751,9.88445,4,3,6
8.258,2730096.95,-0.03799,-0.08794,9.87967,4,3,6
8.275,2730096.969,-0.04277,-0.09272,9.88684,4,3,6
8.296,2730096.988,-0.04995,-0.08794,9.88445,4,3,6
8.312,2730097.007,-0.04038,-0.08794,9.88684,4,3,6
8.331,2730097.026,-0.03081,-0.08076,9.87009,4,3,6
8.349,2730097.045,-0.05234,-0.09751,9.88206,4,3,6
8.368,2730097.064,-0.04277,-0.09272,9.87727,4,3,6
8.389,2730097.083,-0.04995,-0.08794,9.89163,4,3,6
8.408,2730097.102,-0.04516,-0.10229,9.88684,4,3,6
8.427,2730097.121,-0.03559,-0.09511,9.87967,4,3,6
8.446,2730097.14,-0.03799,-0.09751,9.87967,4,3,6
8.469,2730097.16,-0.04277,-0.09511,9.87249,4,3,6
8.488,2730097.179,-0.03799,-0.0999,9.88445,4,3,6
8.502,2730097.198,-0.0332,-0.09033,9.88924,4,3,6
8.521,2730097.217,-0.03799,-0.09272,9.88684,4,3,6
8.54,2730097.236,-0.03081,-0.08794,9.88445,4,3,6
8.562,2730097.255,-0.04277,-0.07836,9.87727,4,3,6
8.577,2730097.274,-0.04516,-0.09751,9.88445,4,3,6
8.597,2730097.293,-0.03799,-0.08554,9.88684,4,3,6
8.616,2730097.312,-0.04995,-0.09272,9.88445,4,3,6
8.634,2730097.331,-0.04277,-0.09033,9.87009,4,3,6
8.655,2730097.35,-0.04038,-0.07597,9.88206,4,3,6
8.673,2730097.369,-0.04277,-0.08794,9.89881,4,3,6
8.692,2730097.388,-0.03799,-0.07597,9.87488,4,3,6
8.711,2730097.407,-0.03559,-0.08315,9.89881,4,3,6
8.731,2730097.426,-0.04516,-0.07358,9.87009,4,3,6
8.75,2730097.445,-0.04995,-0.08794,9.88684,4,3,6
8.767,2730097.464,-0.05234,-0.09272,9.88206,4,3,6
8.788,2730097.483,-0.04038,-0.0999,9.88445,4,3,6
8.806,2730097.502,-0.05234,-0.09751,9.87967,4,3,6
8.825,2730097.521,-0.04038,-0.08315,9.88924,4,3,6
8.846,2730097.54,-0.04756,-0.08554,9.87488,4,3,6
8.866,2730097.559,-0.04277,-0.08554,9.87488,4,3,6
8.884,2730097.578,-0.04756,-0.09751,9.88924,4,3,6
8.904,2730097.597,-0.04038,-0.07836,9.88206,4,3,6
8.921,2730097.616,-0.04516,-0.08554,9.88684,4,3,6
8.94,2730097.635,-0.04756,-0.08076,9.87967,4,3,6
8.962,2730097.654,-0.04516,-0.09033,9.87488,4,3,6
8.977,2730097.673,-0.04277,-0.09751,9.88445,4,3,6
8.999,2730097.692,-0.03559,-0.09272,9.88206,4,3,6
9.019,2730097.711,-0.04277,-0.09033,9.87727,4,3,6
9.033,2730097.73,-0.03559,-0.09272,9.87727,4,3,6
9.054,2730097.749,-0.04516,-0.08554,9.88924,4,3,6
9.073,2730097.768,-0.04516,-0.09033,9.88206,4,3,6
9.1,2730097.787,-0.04756,-0.10469,9.88445,4,3,6
9.109,2730097.806,-0.05234,-0.0999,9.87967,4,3,6
9.127,2730097.825,-0.0332,-0.09511,9.88445,4,3,6
9.151,2730097.844,-0.04277,-0.07597,9.87727,4,3,6
9.174,2730097.863,-0.04038,-0.08794,9.88684,4,3,6
9.187,2730097.882,-0.04277,-0.10947,9.87727,4,3,6
9.206,2730097.901,-0.04038,-0.09511,9.89402,4,3,6
9.224,2730097.92,-0.04516,-0.09751,9.87488,4,3,6
9.243,2730097.939,-0.05474,-0.10947,9.88206,4,3,6
9.263,2730097.958,-0.04277,-0.09751,9.88445,4,3,6
9.282,2730097.977,-0.03799,-0.09272,9.88684,4,3,6
9.302,2730097.996,-0.04516,-0.08315,9.87967,4,3,6
9.319,2730098.015,-0.04277,-0.09272,9.88684,4,3,6
9.339,2730098.034,-0.02841,-0.09511,9.88684,4,3,6
9.358,2730098.054,-0.03799,-0.09511,9.88445,4,3,6
9.377,2730098.073,-0.04277,-0.09033,9.87249,4,3,6
9.399,2730098.092,-0.04038,-0.0999,9.88206,4,3,6
9.415,2730098.111,-0.04277,-0.09272,9.88206,4,3,6
9.433,2730098.13,-0.04277,-0.10469,9.88206,4,3,6
9.453,2730098.149,-0.03559,-0.09751,9.87727,4,3,6
9.472,2730098.168,-0.03799,-0.09751,9.88924,4,3,6
9.495,2730098.187,-0.04277,-0.09272,9.88206,4,3,6
9.51,2730098.206,-0.04516,-0.10229,9.89163,4,3,6
9.527,2730098.225,-0.04516,-0.09751,9.8677,4,3,6
9.547,2730098.244,-0.04277,-0.07597,9.89163,4,3,6
9.571,2730098.263,-0.04277,-0.08554,9.87009,4,3,6
9.586,2730098.282,-0.04038,-0.07836,9.89642,4,3,6
9.605,2730098.301,-0.04038,-0.08554,9.87967,4,3,6
9.624,2730098.32,-0.03799,-0.09511,9.87727,4,3,6
9.644,2730098.339,-0.04995,-0.09511,9.88684,4,3,6
9.661,2730098.358,-0.05234,-0.09272,9.87249,4,3,6
9.681,2730098.377,-0.04277,-0.09272,9.88924,4,3,6
9.699,2730098.396,-0.04516,-0.08794,9.88445,4,3,6
9.718,2730098.415,-0.04038,-0.09272,9.88445,4,3,6
9.737,2730098.434,-0.03559,-0.09511,9.87967,4,3,6
9.757,2730098.453,-0.04756,-0.09033,9.87967,4,3,6
9.776,2730098.472,-0.04038,-0.09033,9.87727,4,3,6
9.794,2730098.491,-0.04277,-0.0999,9.88684,4,3,6
9.813,2730098.51,-0.04995,-0.08794,9.87488,4,3,6
9.833,2730098.529,-0.04756,-0.09033,9.88206,4,3,6
9.852,2730098.548,-0.04516,-0.09272,9.87967,4,3,6
9.871,2730098.567,-0.03559,-0.08794,9.87727,4,3,6
9.891,2730098.586,-0.04516,-0.0999,9.87967,4,3,6
9.908,2730098.605,-0.04516,-0.09272,9.88445,4,3,6
9.931,2730098.624,-0.04756,-0.09272,9.88206,4,3,6
9.949,2730098.643,-0.04516,-0.09272,9.87967,4,3,6
9.97,2730098.662,-0.03799,-0.09751,9.88206,4,3,6
9.985,2730098.681,-0.03559,-0.09751,9.88924,4,3,6
10.005,2730098.7,-0.04756,-0.09272,9.87488,4,3,6
10.026,2730098.719,-0.03559,-0.10229,9.87488,4,3,6
10.042,2730098.738,-0.04038,-0.08554,9.88445,4,3,6
10.061,2730098.757,-0.04756,-0.09272,9.89163,4,3,6
10.086,2730098.776,-0.04756,-0.09272,9.88206,4,3,6
10.1,2730098.795,-0.05234,-0.08794,9.88206,4,3,6
10.117,2730098.814,-0.04038,-0.08794,9.88924,4,3,6
10.137,2730098.833,-0.03799,-0.08554,9.88445,4,3,6
10.156,2730098.852,-0.04277,-0.08315,9.88206,4,3,6
10.175,2730098.871,-0.04038,-0.08315,9.88206,4,3,6
10.194,2730098.89,-0.04516,-0.09511,9.88206,4,3,6
10.218,2730098.909,-0.05234,-0.08794,9.88206,4,3,6
10.233,2730098.928,-0.04756,-0.07358,9.87249,4,3,6
10.252,2730098.947,-0.04516,-0.08076,9.88445,4,3,6
10.271,2730098.967,-0.04516,-0.08794,9.87967,4,3,6
10.29,2730098.986,-0.03799,-0.10229,9.88206,4,3,6
10.309,2730099.005,-0.04516,-0.09511,9.87488,4,3,6
10.328,2730099.024,-0.03799,-0.09511,9.87727,4,3,6
10.348,2730099.043,-0.03559,-0.08554,9.87967,4,3,6
10.366,2730099.062,-0.04995,-0.08794,9.88445,4,3,6
10.385,2730099.081,-0.04277,-0.09511,9.87727,4,3,6
10.404,2730099.1,-0.04277,-0.08076,9.88924,4,3,6
10.422,2730099.119,-0.03559,-0.09751,9.88206,4,3,6
10.446,2730099.138,-0.05234,-0.09033,9.87249,4,3,6
10.462,2730099.157,-0.0332,-0.09272,9.87727,4,3,6
10.485,2730099.176,-0.04277,-0.09751,9.87967,4,3,6
10.505,2730099.195,-0.04038,-0.11186,9.88924,4,3,6
10.517,2730099.214,-0.04756,-0.09033,9.87249,4,3,6
10.536,2730099.233,-0.04038,-0.0999,9.88924,4,3,6
10.555,2730099.252,-0.04038,-0.09272,9.87727,4,3,6
10.574,2730099.271,-0.04756,-0.09751,9.88445,4,3,6
10.594,2730099.29,-0.03081,-0.0999,9.88684,4,3,6
10.612,2730099.309,-0.04038,-0.09511,9.88206,4,3,6
10.631,2730099.328,-0.03559,-0.08794,9.89402,4,3,6
10.651,2730099.347,-0.03799,-0.08076,9.87488,4,3,6
10.671,2730099.366,-0.05474,-0.08315,9.87727,4,3,6
10.689,2730099.385,-0.04277,-0.07836,9.87967,4,3,6
10.709,2730099.404,-0.04995,-0.09272,9.88445,4,3,6
10.729,2730099.423,-0.04995,-0.10229,9.88206,4,3,6
10.746,2730099.442,-0.04756,-0.10469,9.87967,4,3,6
10.768,2730099.461,-0.04038,-0.0999,9.88684,4,3,6
10.786,2730099.48,-0.04516,-0.08315,9.88206,4,3,6
10.804,2730099.499,-0.05713,-0.10229,9.88206,4,3,6
10.826,2730099.518,-0.04995,-0.07836,9.88924,4,3,6
10.841,2730099.537,-0.04277,-0.08794,9.88684,4,3,6
10.86,2730099.556,-0.05474,-0.08554,9.88924,4,3,6
10.879,2730099.575,-0.04756,-0.08554,9.88924,4,3,6
10.901,2730099.594,-0.03799,-0.0999,9.88445,4,3,6
10.919,2730099.613,-0.04756,-0.09272,9.88206,4,3,6
10.936,2730099.632,-0.03559,-0.08794,9.87967,4,3,6
10.958,2730099.651,-0.04756,-0.09033,9.89163,4,3,6
10.974,2730099.67,-0.05234,-0.09751,9.88445,4,3,6
10.994,2730099.689,-0.04516,-0.09033,9.88206,4,3,6
11.012,2730099.708,-0.04277,-0.08794,9.88924,4,3,6
11.03,2730099.727,-0.03559,-0.09272,9.88445,4,3,6
11.052,2730099.746,-0.04277,-0.09511,9.88445,4,3,6
11.071,2730099.765,-0.04038,-0.09751,9.88445,4,3,6
11.088,2730099.784,-0.04277,-0.09272,9.88445,4,3,6
11.106,2730099.803,-0.03799,-0.10469,9.88924,4,3,6
11.129,2730099.822,-0.05234,-0.09033,9.87488,4,3,6
11.147,2730099.841,-0.04038,-0.09272,9.88924,4,3,6
11.17,2730099.86,-0.04756,-0.10229,9.87967,4,3,6
11.183,2730099.88,-0.03559,-0.08554,9.88684,4,3,6
11.201,2730099.899,-0.03799,-0.08076,9.88206,4,3,6
11.221,2730099.918,-0.04277,-0.07358,9.88445,4,3,6
11.24,2730099.937,-0.04995,-0.08554,9.87488,4,3,6
11.259,2730099.956,-0.05474,-0.09272,9.87727,4,3,6
11.279,2730099.975,-0.04995,-0.09033,9.88206,4,3,6
11.298,2730099.994,-0.05234,-0.09033,9.87727,4,3,6
11.318,2730100.013,-0.06191,-0.09272,9.88684,4,3,6
11.336,2730100.032,-0.04995,-0.09272,9.87727,4,3,6
11.355,2730100.051,-0.03799,-0.08794,9.88924,4,3,6
11.374,2730100.07,-0.04516,-0.08794,9.88684,4,3,6
11.392,2730100.089,-0.04038,-0.09033,9.88206,4,3,6
11.412,2730100.108,-0.04516,-0.10708,9.87488,4,3,6
11.43,2730100.127,-0.03799,-0.08554,9.88445,4,3,6
11.451,2730100.146,-0.05234,-0.10469,9.87967,4,3,6
11.471,2730100.165,-0.0332,-0.09033,9.88445,4,3,6
11.488,2730100.184,-0.03799,-0.09272,9.88445,4,3,6
11.509,2730100.203,-0.04038,-0.10229,9.88684,4,3,6
11.527,2730100.222,-0.03799,-0.10229,9.89163,4,3,6
11.546,2730100.241,-0.04516,-0.08794,9.88684,4,3,6
11.566,2730100.26,-0.03559,-0.0999,9.87488,4,3,6
11.586,2730100.279,-0.04516,-0.09511,9.88445,4,3,6
11.602,2730100.298,-0.04756,-0.0999,9.87967,4,3,6
11.622,2730100.317,-0.04038,-0.08794,9.88206,4,3,6
11.64,2730100.336,-0.03559,-0.09033,9.87488,4,3,6
11.664,2730100.355,-0.04516,-0.08794,9.88206,4,3,6
11.678,2730100.374,-0.04516,-0.0999,9.88206,4,3,6
11.697,2730100.393,-0.04756,-0.10708,9.87488,4,3,6
11.719,2730100.412,-0.04516,-0.09751,9.88684,4,3,6
11.735,2730100.431,-0.04516,-0.10229,9.88684,4,3,6
11.759,2730100.45,-0.04277,-0.09272,9.87488,4,3,6
11.773,2730100.469,-0.03799,-0.0999,9.87727,4,3,6
11.795,2730100.488,-0.04277,-0.07597,9.87967,4,3,6
11.811,2730100.507,-0.04277,-0.07119,9.88924,4,3,6
11.831,2730100.526,-0.04756,-0.09511,9.88445,4,3,6
11.851,2730100.545,-0.04516,-0.07358,9.89402,4,3,6
11.869,2730100.564,-0.04516,-0.0999,9.87967,4,3,6
11.886,2730100.583,-0.04756,-0.08554,9.88445,4,3,6
11.908,2730100.602,-0.03559,-0.0999,9.88206,4,3,6
11.93,2730100.621,-0.04516,-0.09751,9.88206,4,3,6
11.948,2730100.64,-0.05234,-0.08554,9.87249,4,3,6
11.969,2730100.659,-0.04516,-0.09272,9.88206,4,3,6
11.987,2730100.678,-0.03799,-0.08076,9.87727,4,3,6
12.003,2730100.697,-0.03799,-0.08076,9.88206,4,3,6
12.02,2730100.716,-0.04277,-0.09751,9.87967,4,3,6
12.04,2730100.735,-0.03799,-0.09272,9.87727,4,3,6
12.062,2730100.754,-0.04038,-0.08315,9.87967,4,3,6
12.077,2730100.774,-0.04756,-0.09033,9.88206,4,3,6
12.098,2730100.793,-0.04277,-0.09511,9.88924,4,3,6
12.116,2730100.812,-0.04756,-0.08554,9.87009,4,3,6
12.135,2730100.831,-0.03559,-0.09511,9.87727,4,3,6
12.154,2730100.85,-0.04516,-0.09272,9.87727,4,3,6
12.174,2730100.869,-0.04038,-0.09751,9.88206,4,3,6
12.19,2730100.888,-0.04516,-0.09272,9.88684,4,3,6
12.211,2730100.907,-0.04277,-0.08315,9.88206,4,3,6
12.23,2730100.926,-0.03559,-0.07597,9.88206,4,3,6
12.253,2730100.945,-0.04516,-0.07597,9.88445,4,3,6
12.269,2730100.964,-0.04756,-0.09511,9.88445,4,3,6
12.288,2730100.983,-0.04516,-0.08554,9.87727,4,3,6
12.311,2730101.002,-0.04277,-0.09511,9.88445,4,3,6
12.33,2730101.021,-0.04516,-0.09272,9.87967,4,3,6
12.345,2730101.04,-0.04038,-0.08794,9.87967,4,3,6
12.364,2730101.059,-0.02841,-0.08554,9.88445,4,3,6
12.383,2730101.078,-0.04277,-0.10708,9.88445,4,3,6
12.4,2730101.097,-0.04038,-0.10469,9.87727,4,3,6
12.42,2730101.116,-0.04516,-0.08315,9.87967,4,3,6
12.439,2730101.135,-0.04516,-0.09272,9.88206,4,3,6
12.461,2730101.154,-0.03559,-0.09033,9.88445,4,3,6
12.477,2730101.173,-0.03559,-0.09511,9.88924,4,3,6
12.5,2730101.192,-0.04756,-0.09751,9.88206,4,3,6
12.515,2730101.211,-0.04038,-0.08076,9.88206,4,3,6
12.534,2730101.23,-0.03799,-0.08794,9.87967,4,3,6
12.554,2730101.249,-0.04756,-0.09033,9.87727,4,3,6
12.573,2730101.268,-0.03799,-0.10469,9.88924,4,3,6
12.594,2730101.287,-0.05234,-0.09751,9.87967,4,3,6
12.611,2730101.306,-0.05713,-0.08794,9.88206,4,3,6
12.628,2730101.325,-0.03799,-0.09272,9.88445,4,3,6
12.651,2730101.344,-0.04516,-0.09511,9.88445,4,3,6
12.668,2730101.363,-0.03081,-0.09272,9.88924,4,3,6
12.685,2730101.382,-0.03799,-0.09272,9.88206,4,3,6
12.706,2730101.401,-0.04995,-0.09272,9.88924,4,3,6
12.728,2730101.42,-0.04038,-0.09511,9.87009,4,3,6
12.743,2730101.439,-0.04277,-0.09751,9.88445,4,3,6
12.766,2730101.458,-0.04277,-0.09033,9.88206,4,3,6
12.787,2730101.477,-0.04995,-0.09751,9.88445,4,3,6
12.804,2730101.496,-0.05234,-0.08315,9.88924,4,3,6
12.82,2730101.515,-0.04756,-0.09751,9.88445,4,3,6
12.841,2730101.534,-0.05474,-0.09751,9.87967,4,3,6
12.858,2730101.553,-0.04277,-0.09751,9.87967,4,3,6
12.876,2730101.572,-0.03799,-0.09272,9.88206,4,3,6
12.895,2730101.591,-0.04516,-0.09751,9.88206,4,3,6
12.918,2730101.61,-0.04756,-0.09272,9.87249,4,3,6
12.933,2730101.629,-0.04277,-0.09511,9.87967,4,3,6
12.953,2730101.648,-0.04277,-0.09033,9.87967,4,3,6
12.972,2730101.667,-0.04516,-0.08794,9.88924,4,3,6
12.99,2730101.687,-0.04995,-0.08315,9.87967,4,3,6
13.009,2730101.706,-0.04516,-0.09511,9.88924,4,3,6
13.03,2730101.725,-0.03559,-0.08794,9.87249,4,3,6
13.051,2730101.744,-0.04995,-0.09272,9.88206,4,3,6
13.068,2730101.763,-0.04038,-0.09033,9.87727,4,3,6
13.087,2730101.782,-0.05474,-0.09033,9.87967,4,3,6
13.105,2730101.801,-0.04756,-0.09033,9.88445,4,3,6
13.123,2730101.82,-0.04516,-0.09033,9.87967,4,3,6
13.152,2730101.839,-0.04756,-0.08554,9.87727,4,3,6
13.179,2730101.858,-0.04756,-0.09033,9.88684,4,3,6
13.181,2730101.877,-0.03559,-0.08554,9.88206,4,3,6
13.199,2730101.896,-0.04277,-0.09272,9.87967,4,3,6
13.218,2730101.915,-0.04277,-0.08554,9.87967,4,3,6
13.239,2730101.934,-0.04516,-0.08315,9.87727,4,3,6
13.257,2730101.953,-0.04277,-0.08554,9.87967,4,3,6
13.277,2730101.972,-0.0332,-0.08794,9.87727,4,3,6
13.296,2730101.991,-0.04516,-0.08315,9.87727,4,3,6
13.314,2730102.01,-0.04756,-0.09033,9.87727,4,3,6
13.332,2730102.029,-0.02841,-0.09033,9.88445,4,3,6
13.352,2730102.048,-0.04038,-0.07836,9.88206,4,3,6
13.371,2730102.067,-0.03559,-0.10469,9.88924,4,3,6
13.389,2730102.086,-0.03081,-0.08315,9.87967,4,3,6
13.408,2730102.105,-0.04277,-0.08794,9.87727,4,3,6
13.43,2730102.124,-0.03799,-0.09751,9.87727,4,3,6
13.453,2730102.143,-0.04516,-0.09751,9.88206,4,3,6
13.47,2730102.162,-0.04277,-0.09033,9.88445,4,3,6
13.484,2730102.181,-0.04516,-0.09033,9.88684,4,3,6
13.504,2730102.2,-0.04516,-0.09511,9.88924,4,3,6
13.524,2730102.219,-0.04995,-0.09511,9.87488,4,3,6
13.543,2730102.238,-0.03559,-0.08076,9.87727,4,3,6
13.564,2730102.257,-0.05234,-0.09751,9.87488,4,3,6
13.585,2730102.276,-0.04277,-0.08076,9.88445,4,3,6
13.599,2730102.295,-0.04756,-0.10708,9.87727,4,3,6
13.618,2730102.314,-0.0332,-0.09751,9.88206,4,3,6
13.638,2730102.333,-0.04038,-0.09272,9.87727,4,3,6
13.66,2730102.352,-0.04756,-0.0999,9.88206,4,3,6
13.675,2730102.371,-0.04756,-0.07836,9.87249,4,3,6
13.694,2730102.39,-0.04277,-0.08315,9.88206,4,3,6
13.712,2730102.409,-0.03559,-0.08554,9.87488,4,3,6
13.731,2730102.428,-0.03799,-0.08794,9.89163,4,3,6
13.752,2730102.447,-0.04277,-0.08554,9.87967,4,3,6
13.771,2730102.466,-0.04995,-0.08554,9.88684,4,3,6
13.789,2730102.485,-0.04038,-0.0999,9.88445,4,3,6
13.811,2730102.504,-0.04277,-0.08315,9.87967,4,3,6
13.828,2730102.523,-0.05234,-0.08794,9.87249,4,3,6
13.849,2730102.542,-0.04277,-0.09033,9.88206,4,3,6
13.866,2730102.561,-0.04516,-0.09033,9.87727,4,3,6
13.883,2730102.581,-0.04756,-0.09511,9.87249,4,3,6
13.903,2730102.6,-0.04038,-0.0999,9.88445,4,3,6
13.923,2730102.619,-0.04516,-0.09272,9.87967,4,3,6
13.941,2730102.638,-0.03799,-0.08794,9.87488,4,3,6
13.961,2730102.657,-0.05234,-0.08076,9.87967,4,3,6
13.983,2730102.676,-0.04756,-0.07836,9.88445,4,3,6
14.003,2730102.695,-0.04995,-0.08794,9.88445,4,3,6
14.016,2730102.714,-0.03799,-0.08794,9.87967,4,3,6
14.036,2730102.733,-0.03799,-0.09272,9.88206,4,3,6
14.055,2730102.752,-0.04038,-0.09033,9.87488,4,3,6
14.074,2730102.771,-0.04756,-0.0999,9.87488,4,3,6
14.095,2730102.79,-0.04277,-0.09272,9.88206,4,3,6
14.113,2730102.809,-0.05234,-0.08554,9.89402,4,3,6
14.131,2730102.828,-0.03559,-0.08076,9.88206,4,3,6
14.15,2730102.847,-0.04277,-0.09033,9.88684,4,3,6
14.17,2730102.866,-0.04995,-0.09272,9.87967,4,3,6
14.188,2730102.885,-0.04038,-0.08076,9.88206,4,3,6
14.208,2730102.904,-0.04038,-0.08794,9.88445,4,3,6
14.228,2730102.923,-0.04038,-0.08315,9.88684,4,3,6
14.249,2730102.942,-0.04277,-0.08554,9.88445,4,3,6
14.268,2730102.961,-0.05713,-0.0999,9.87488,4,3,6
14.283,2730102.98,-0.03081,-0.09511,9.87967,4,3,6
14.304,2730102.999,-0.03799,-0.09511,9.88445,4,3,6
14.327,2730103.018,-0.04516,-0.09511,9.88445,4,3,6
14.344,2730103.037,-0.04038,-0.08076,9.88206,4,3,6
14.36,2730103.056,-0.04038,-0.07358,9.87488,4,3,6
14.383,2730103.075,-0.04277,-0.09272,9.88684,4,3,6
14.397,2730103.094,-0.04516,-0.10229,9.87727,4,3,6
14.417,2730103.113,-0.03799,-0.09751,9.88445,4,3,6
14.437,2730103.132,-0.04277,-0.08315,9.88206,4,3,6
14.455,2730103.151,-0.03559,-0.08554,9.87249,4,3,6
14.474,2730103.17,-0.04277,-0.08076,9.88206,4,3,6
14.495,2730103.189,-0.04516,-0.08794,9.87967,4,3,6
14.511,2730103.208,-0.04756,-0.09033,9.87488,4,3,6
14.53,2730103.227,-0.04277,-0.09033,9.89402,4,3,6
14.55,2730103.246,-0.03559,-0.08794,9.87249,4,3,6
14.569,2730103.265,-0.04277,-0.09272,9.88445,4,3,6
14.587,2730103.284,-0.04516,-0.09272,9.87967,4,3,6
14.608,2730103.303,-0.03799,-0.09511,9.88206,4,3,6
14.628,2730103.322,-0.04038,-0.09272,9.89402,4,3,6
14.652,2730103.341,-0.02841,-0.09033,9.87967,4,3,6
14.666,2730103.36,-0.04995,-0.08554,9.88206,4,3,6
14.683,2730103.379,-0.03559,-0.09272,9.87009,4,3,6
14.703,2730103.398,-0.03799,-0.08554,9.88206,4,3,6
14.722,2730103.417,-0.03799,-0.08794,9.87249,4,3,6
14.745,2730103.436,-0.04516,-0.09033,9.89642,4,3,6
14.761,2730103.455,-0.04756,-0.09033,9.87009,4,3,6
14.779,2730103.474,-0.05713,-0.08315,9.88924,4,3,6
14.797,2730103.494,-0.04277,-0.08554,9.87009,4,3,6
14.815,2730103.513,-0.04277,-0.10469,9.87727,4,3,6
14.835,2730103.532,-0.04277,-0.10229,9.88445,4,3,6
14.859,2730103.551,-0.04038,-0.0999,9.87488,4,3,6
14.874,2730103.57,-0.04038,-0.0999,9.88924,4,3,6
14.896,2730103.589,-0.04516,-0.09751,9.87967,4,3,6
14.911,2730103.608,-0.04516,-0.08554,9.87967,4,3,6
14.931,2730103.627,-0.04038,-0.09033,9.89163,4,3,6
14.949,2730103.646,-0.04277,-0.08794,9.87967,4,3,6
14.971,2730103.665,-0.04995,-0.09511,9.88684,4,3,6
14.988,2730103.684,-0.04756,-0.09272,9.87967,4,3,6
15.008,2730103.703,-0.04516,-0.09511,9.87967,4,3,6
15.028,2730103.722,-0.04038,-0.09511,9.87727,4,3,6
15.045,2730103.741,-0.04277,-0.09272,9.88684,4,3,6
15.064,2730103.76,-0.04038,-0.10229,9.87727,4,3,6
15.087,2730103.779,-0.04516,-0.09511,9.88206,4,3,6
15.103,2730103.798,-0.03799,-0.08794,9.87727,4,3,6
15.12,2730103.817,-0.04516,-0.08315,9.88445,4,3,6
15.148,2730103.836,-0.03559,-0.09033,9.88684,4,3,6
15.172,2730103.855,-0.05952,-0.08315,9.87727,4,3,6
15.178,2730103.874,-0.04995,-0.08554,9.88684,4,3,6
15.196,2730103.893,-0.04516,-0.09511,9.87727,4,3,6
15.216,2730103.912,-0.04277,-0.09751,9.88206,4,3,6
15.234,2730103.931,-0.04038,-0.09033,9.87727,4,3,6
15.254,2730103.95,-0.03799,-0.06879,9.88684,4,3,6
15.272,2730103.969,-0.04516,-0.07597,9.87727,4,3,6
15.291,2730103.988,-0.04038,-0.09272,9.88445,4,3,6
15.31,2730104.007,-0.04038,-0.09033,9.88684,4,3,6
15.329,2730104.026,-0.04277,-0.07836,9.88684,4,3,6
15.348,2730104.045,-0.04038,-0.08554,9.88206,4,3,6
15.366,2730104.064,-0.04038,-0.08554,9.88684,4,3,6
15.387,2730104.083,-0.04516,-0.08315,9.87249,4,3,6
15.407,2730104.102,-0.03799,-0.09511,9.89163,4,3,6
15.428,2730104.121,-0.05234,-0.09272,9.88206,4,3,6
15.445,2730104.14,-0.04516,-0.08315,9.88445,4,3,6
15.463,2730104.159,-0.03559,-0.08076,9.87967,4,3,6
15.482,2730104.178,-0.04277,-0.08554,9.88206,4,3,6
15.502,2730104.197,-0.04038,-0.10229,9.87727,4,3,6
15.52,2730104.216,-0.04516,-0.0999,9.88924,4,3,6
15.541,2730104.235,-0.04995,-0.10229,9.88684,4,3,6
15.558,2730104.254,-0.05474,-0.09751,9.88206,4,3,6
15.576,2730104.273,-0.0332,-0.09751,9.88445,4,3,6
15.598,2730104.292,-0.04756,-0.10229,9.87488,4,3,6
15.615,2730104.311,-0.04516,-0.08794,9.88924,4,3,6
15.634,2730104.33,-0.04516,-0.09033,9.87488,4,3,6
15.656,2730104.349,-0.04038,-0.07836,9.87249,4,3,6
15.672,2730104.368,-0.04038,-0.09033,9.88684,4,3,6
15.69,2730104.387,-0.03799,-0.08794,9.87009,4,3,6
15.709,2730104.407,-0.03799,-0.08076,9.88924,4,3,6
15.728,2730104.426,-0.04516,-0.09272,9.87009,4,3,6
15.748,2730104.445,-0.04277,-0.09033,9.88206,4,3,6
15.768,2730104.464,-0.04277,-0.0999,9.88445,4,3,6
15.787,2730104.483,-0.03081,-0.09033,9.88684,4,3,6
15.805,2730104.502,-0.04995,-0.08794,9.87967,4,3,6
15.827,2730104.521,-0.04995,-0.08794,9.87967,4,3,6
15.844,2730104.54,-0.05474,-0.09272,9.88445,4,3,6
15.863,2730104.559,-0.05713,-0.09511,9.88206,4,3,6
15.882,2730104.578,-0.03799,-0.09511,9.88924,4,3,6
15.9,2730104.597,-0.04038,-0.09272,9.87967,4,3,6
15.92,2730104.616,-0.04516,-0.09033,9.87967,4,3,6
15.939,2730104.635,-0.04756,-0.07597,9.88445,4,3,6
15.957,2730104.654,-0.03559,-0.08315,9.87009,4,3,6
15.977,2730104.673,-0.03559,-0.09511,9.88445,4,3,6
15.995,2730104.692,-0.04516,-0.0999,9.88445,4,3,6
16.015,2730104.711,-0.04516,-0.08076,9.88924,4,3,6
16.032,2730104.73,-0.04756,-0.09751,9.87967,4,3,6
16.054,2730104.749,-0.04038,-0.08794,9.87009,4,3,6
16.071,2730104.768,-0.04277,-0.08554,9.87727,4,3,6
16.09,2730104.787,-0.03799,-0.09272,9.87727,4,3,6
16.109,2730104.806,-0.03559,-0.08315,9.88206,4,3,6
16.128,2730104.825,-0.05234,-0.09272,9.88206,4,3,6
16.148,2730104.844,-0.04995,-0.0999,9.88924,4,3,6
16.166,2730104.863,-0.04277,-0.08554,9.87249,4,3,6
16.185,2730104.882,-0.03799,-0.08554,9.88445,4,3,6
16.204,2730104.901,-0.04038,-0.09751,9.88445,4,3,6
16.227,2730104.92,-0.04277,-0.09033,9.88924,4,3,6
16.243,2730104.939,-0.03799,-0.08794,9.87727,4,3,6
16.264,2730104.958,-0.04277,-0.07836,9.88924,4,3,6
16.284,2730104.977,-0.05234,-0.0999,9.87249,4,3,6
16.301,2730104.996,-0.03559,-0.10229,9.88924,4,3,6
16.32,2730105.015,-0.03559,-0.07836,9.87249,4,3,6
16.338,2730105.034,-0.0332,-0.08794,9.88445,4,3,6
16.356,2730105.053,-0.04756,-0.09272,9.87488,4,3,6
16.376,2730105.072,-0.0332,-0.08794,9.87967,4,3,6
16.395,2730105.091,-0.04277,-0.08794,9.88684,4,3,6
16.414,2730105.11,-0.04516,-0.08076,9.89163,4,3,6
16.432,2730105.129,-0.04756,-0.09511,9.87967,4,3,6
16.452,2730105.148,-0.04995,-0.09751,9.87488,4,3,6
16.472,2730105.167,-0.04277,-0.09751,9.89881,4,3,6
16.489,2730105.186,-0.03559,-0.08794,9.88206,4,3,6
16.508,2730105.205,-0.04277,-0.08076,9.89642,4,3,6
16.529,2730105.224,-0.04277,-0.0999,9.87727,4,3,6
16.547,2730105.243,-0.04038,-0.08076,9.88684,4,3,6
16.57,2730105.262,-0.04038,-0.08315,9.87488,4,3,6
16.585,2730105.281,-0.04995,-0.09272,9.87967,4,3,6
16.604,2730105.301,-0.04038,-0.08794,9.88445,4,3,6
16.627,2730105.32,-0.04038,-0.08315,9.88206,4,3,6
16.644,2730105.339,-0.04277,-0.09511,9.87488,4,3,6
16.661,2730105.358,-0.05234,-0.09751,9.88206,4,3,6
16.68,2730105.377,-0.03559,-0.0999,9.88206,4,3,6
16.7,2730105.396,-0.04277,-0.09272,9.88206,4,3,6
16.719,2730105.415,-0.04516,-0.09033,9.88445,4,3,6
16.74,2730105.434,-0.0332,-0.09511,9.88206,4,3,6
16.759,2730105.453,-0.03799,-0.09751,9.88445,4,3,6
16.776,2730105.472,-0.03799,-0.10469,9.88924,4,3,6
16.797,2730105.491,-0.04277,-0.09033,9.88684,4,3,6
16.814,2730105.51,-0.04756,-0.09751,9.88684,4,3,6
16.832,2730105.529,-0.04277,-0.09751,9.87488,4,3,6
16.852,2730105.548,-0.04516,-0.0999,9.8677,4,3,6
16.87,2730105.567,-0.05234,-0.10229,9.90599,4,3,6
16.89,2730105.586,-0.03799,-0.0999,9.84377,4,3,6
16.908,2730105.605,-0.03559,-0.08315,9.91077,4,3,6
16.928,2730105.624,-0.03799,-0.09033,9.85334,4,3,6
16.949,2730105.643,-0.04756,-0.08315,9.9012,4,3,6
16.966,2730105.662,-0.03559,-0.10229,9.87488,4,3,6
16.986,2730105.681,-0.04277,-0.09033,9.87967,4,3,6
17.004,2730105.7,-0.04516,-0.0999,9.88684,4,3,6
17.022,2730105.719,-0.04516,-0.09511,9.88924,4,3,6
17.041,2730105.738,-0.04038,-0.08554,9.8677,4,3,6
17.06,2730105.757,-0.04277,-0.09511,9.89163,4,3,6
17.08,2730105.776,-0.04277,-0.09033,9.87727,4,3,6
17.106,2730105.795,-0.04038,-0.09272,9.88924,4,3,6
17.118,2730105.814,-0.03559,-0.08076,9.88445,4,3,6
17.136,2730105.833,-0.04756,-0.08794,9.87967,4,3,6
17.169,2730105.852,-0.04995,-0.08554,9.88445,4,3,6
17.176,2730105.871,-0.04277,-0.09272,9.88206,4,3,6
17.194,2730105.89,-0.04995,-0.08554,9.87727,4,3,6
17.211,2730105.909,-0.04516,-0.09272,9.87967,4,3,6
17.232,2730105.928,-0.04995,-0.08794,9.87488,4,3,6
17.251,2730105.947,-0.04995,-0.08554,9.88206,4,3,6
17.27,2730105.966,-0.04995,-0.09272,9.88445,4,3,6
17.29,2730105.985,-0.03799,-0.10229,9.89163,4,3,6
17.309,2730106.004,-0.04756,-0.07597,9.88684,4,3,6
17.326,2730106.023,-0.04277,-0.09511,9.88206,4,3,6
17.346,2730106.042,-0.04277,-0.09033,9.88206,4,3,6
17.366,2730106.061,-0.04277,-0.08794,9.87967,4,3,6
17.382,2730106.08,-0.04516,-0.09033,9.88206,4,3,6
17.402,2730106.099,-0.05234,-0.08794,9.87727,4,3,6
17.422,2730106.118,-0.04756,-0.08554,9.89642,4,3,6
17.441,2730106.137,-0.03559,-0.08794,9.8677,4,3,6
17.46,2730106.156,-0.03559,-0.09511,9.89163,4,3,6
17.479,2730106.175,-0.04277,-0.07836,9.86531,4,3,6
17.498,2730106.194,-0.04995,-0.10708,9.89402,4,3,6
17.518,2730106.214,-0.04516,-0.08794,9.87009,4,3,6
17.536,2730106.233,-0.04516,-0.08794,9.89881,4,3,6
17.555,2730106.252,-0.04756,-0.09511,9.87009,4,3,6
17.574,2730106.271,-0.04756,-0.09033,9.89402,4,3,6
17.592,2730106.29,-0.04756,-0.08315,9.87727,4,3,6
17.612,2730106.309,-0.03559,-0.08554,9.88684,4,3,6
17.631,2730106.328,-0.03799,-0.09511,9.87727,4,3,6
17.65,2730106.347,-0.03559,-0.09272,9.88684,4,3,6
17.67,2730106.366,-0.04756,-0.10469,9.87727,4,3,6
17.688,2730106.385,-0.04516,-0.09272,9.88924,4,3,6
17.707,2730106.404,-0.04756,-0.08554,9.87967,4,3,6
17.728,2730106.423,-0.04995,-0.09272,9.89642,4,3,6
17.746,2730106.442,-0.04277,-0.07358,9.88924,4,3,6
17.765,2730106.461,-0.04516,-0.0999,9.87727,4,3,6
17.784,2730106.48,-0.0332,-0.09511,9.87967,4,3,6
17.802,2730106.499,-0.04756,-0.08554,9.88206,4,3,6
17.821,2730106.518,-0.04995,-0.10229,9.87967,4,3,6
17.84,2730106.537,-0.0332,-0.0999,9.88445,4,3,6
17.86,2730106.556,-0.04277,-0.09272,9.88924,4,3,6
17.878,2730106.575,-0.04995,-0.08794,9.88684,4,3,6
17.897,2730106.594,-0.04038,-0.08554,9.88445,4,3,6
17.916,2730106.613,-0.04756,-0.09272,9.87967,4,3,6
17.935,2730106.632,-0.04995,-0.0999,9.8677,4,3,6
17.956,2730106.651,-0.04756,-0.08554,9.90359,4,3,6
17.974,2730106.67,-0.04277,-0.10469,9.84617,4,3,6
17.996,2730106.689,-0.04038,-0.08554,9.91077,4,3,6
18.012,2730106.708,-0.04277,-0.0999,9.85813,4,3,6
18.029,2730106.727,-0.04277,-0.08315,9.89881,4,3,6
18.048,2730106.746,-0.03799,-0.10229,9.87249,4,3,6
18.069,2730106.765,-0.04038,-0.09751,9.87249,4,3,6
18.092,2730106.784,-0.04277,-0.08794,9.88684,4,3,6
18.107,2730106.803,-0.04995,-0.10229,9.87967,4,3,6
18.126,2730106.822,-0.03799,-0.09511,9.88924,4,3,6
18.145,2730106.841,-0.04277,-0.09272,9.88445,4,3,6
18.163,2730106.86,-0.03559,-0.08076,9.88445,4,3,6
18.183,2730106.879,-0.04516,-0.08076,9.88924,4,3,6
18.205,2730106.898,-0.04756,-0.08315,9.88684,4,3,6
18.221,2730106.917,-0.05713,-0.09033,9.89163,4,3,6
18.239,2730106.936,-0.04756,-0.08554,9.88206,4,3,6
18.258,2730106.955,-0.03559,-0.09033,9.87727,4,3,6
18.279,2730106.974,-0.03799,-0.09033,9.87727,4,3,6
18.301,2730106.993,-0.04516,-0.09511,9.87249,4,3,6
18.316,2730107.012,-0.04995,-0.09751,9.87967,4,3,6
18.336,2730107.031,-0.04277,-0.10229,9.88445,4,3,6
18.354,2730107.05,-0.03799,-0.09751,9.88924,4,3,6
18.373,2730107.069,-0.04516,-0.09033,9.8677,4,3,6
18.395,2730107.088,-0.04038,-0.09272,9.89402,4,3,6
18.41,2730107.108,-0.05234,-0.09033,9.87488,4,3,6
18.429,2730107.127,-0.04516,-0.0999,9.88445,4,3,6
18.45,2730107.146,-0.03559,-0.10708,9.88924,4,3,6
18.468,2730107.165,-0.04038,-0.10469,9.86292,4,3,6
18.488,2730107.184,-0.04038,-0.09511,9.89402,4,3,6
18.512,2730107.203,-0.04756,-0.09751,9.85334,4,3,6
18.526,2730107.222,-0.03559,-0.08315,9.91077,4,3,6
18.549,2730107.241,-0.04277,-0.09033,9.87727,4,3,6
18.567,2730107.26,-0.05474,-0.08315,9.88206,4,3,6
18.585,2730107.279,-0.04277,-0.09751,9.87727,4,3,6
18.603,2730107.298,-0.04756,-0.09033,9.89163,4,3,6
18.621,2730107.317,-0.04277,-0.09272,9.86531,4,3,6
18.64,2730107.336,-0.04995,-0.08076,9.90359,4,3,6
18.662,2730107.355,-0.04038,-0.08554,9.87967,4,3,6
18.678,2730107.374,-0.04756,-0.08794,9.88684,4,3,6
18.697,2730107.393,-0.04516,-0.09272,9.87727,4,3,6
18.715,2730107.412,-0.04995,-0.09033,9.87727,4,3,6
18.739,2730107.431,-0.04756,-0.09272,9.88206,4,3,6
18.755,2730107.45,-0.0332,-0.09751,9.88684,4,3,6
18.772,2730107.469,-0.03799,-0.0999,9.87727,4,3,6
18.796,2730107.488,-0.04038,-0.09033,9.88924,4,3,6
18.81,2730107.507,-0.03799,-0.09751,9.88445,4,3,6
18.83,2730107.526,-0.0332,-0.08794,9.88445,4,3,6
18.848,2730107.545,-0.02841,-0.08076,9.88684,4,3,6
18.868,2730107.564,-0.04516,-0.10469,9.88684,4,3,6
18.886,2730107.583,-0.03799,-0.09033,9.88684,4,3,6
18.908,2730107.602,-0.05234,-0.09511,9.88206,4,3,6
18.925,2730107.621,-0.03559,-0.08554,9.88684,4,3,6
18.945,2730107.64,-0.04756,-0.09033,9.87967,4,3,6
18.963,2730107.659,-0.04516,-0.08794,9.88445,4,3,6
18.985,2730107.678,-0.04277,-0.09511,9.87727,4,3,6
19.003,2730107.697,-0.04038,-0.08315,9.87967,4,3,6
19.021,2730107.716,-0.04756,-0.08794,9.8677,4,3,6
19.039,2730107.735,-0.03799,-0.09751,9.90838,4,3,6
19.059,2730107.754,-0.04277,-0.10469,9.87009,4,3,6
19.077,2730107.773,-0.04038,-0.0999,9.89402,4,3,6
19.096,2730107.792,-0.03559,-0.09272,9.87249,4,3,6
19.114,2730107.811,-0.04038,-0.07836,9.9012,4,3,6
19.133,2730107.83,-0.05952,-0.09033,9.85334,4,3,6
19.178,2730107.849,-0.05234,-0.07597,9.91077,4,3,6
19.178,2730107.868,-0.04995,-0.08794,9.85574,4,3,6
19.19,2730107.887,-0.04277,-0.08315,9.9012,4,3,6
19.211,2730107.906,-0.04277,-0.08794,9.88445,4,3,6
19.228,2730107.925,-0.04516,-0.09272,9.88445,4,3,6
19.248,2730107.944,-0.04038,-0.09033,9.87488,4,3,6
19.266,2730107.963,-0.03559,-0.09033,9.88206,4,3,6
19.287,2730107.982,-0.04277,-0.09751,9.87727,4,3,6
19.307,2730108.001,-0.04277,-0.10708,9.88445,4,3,6
19.325,2730108.021,-0.05234,-0.09751,9.88206,4,3,6
19.347,2730108.04,-0.04277,-0.09511,9.89402,4,3,6
19.363,2730108.059,-0.03559,-0.08076,9.88206,4,3,6
19.382,2730108.078,-0.04756,-0.09033,9.88445,4,3,6
19.4,2730108.097,-0.03081,-0.09272,9.88445,4,3,6
19.419,2730108.116,-0.04756,-0.09033,9.88924,4,3,6
19.438,2730108.135,-0.04516,-0.09033,9.87249,4,3,6
19.461,2730108.154,-0.03799,-0.08794,9.88445,4,3,6
19.476,2730108.173,-0.04038,-0.09272,9.87727,4,3,6
19.496,2730108.192,-0.03559,-0.07836,9.87727,4,3,6
19.518,2730108.211,-0.04516,-0.09272,9.88445,4,3,6
19.533,2730108.23,-0.04995,-0.08554,9.86292,4,3,6
19.553,2730108.249,-0.04995,-0.09751,9.89163,4,3,6
19.575,2730108.268,-0.04516,-0.10229,9.87249,4,3,6
19.59,2730108.287,-0.04277,-0.08554,9.88445,4,3,6
19.611,2730108.306,-0.04277,-0.08794,9.87727,4,3,6
19.631,2730108.325,-0.03559,-0.09272,9.88684,4,3,6
19.648,2730108.344,-0.03559,-0.09511,9.87727,4,3,6
19.671,2730108.363,-0.03559,-0.08554,9.89642,4,3,6
19.685,2730108.382,-0.04277,-0.09272,9.8677,4,3,6
19.705,2730108.401,-0.04516,-0.08315,9.90359,4,3,6
19.724,2730108.42,-0.04995,-0.08554,9.87009,4,3,6
19.744,2730108.439,-0.04516,-0.10229,9.88206,4,3,6
19.762,2730108.458,-0.04277,-0.08554,9.89642,4,3,6
19.781,2730108.477,-0.03799,-0.09272,9.87967,4,3,6
19.799,2730108.496,-0.04756,-0.09511,9.89163,4,3,6
19.82,2730108.515,-0.04038,-0.08794,9.87967,4,3,6
19.838,2730108.534,-0.04277,-0.09033,9.87488,4,3,6
19.86,2730108.553,-0.0332,-0.10708,9.88445,4,3,6
19.88,2730108.572,-0.04038,-0.08794,9.88924,4,3,6
19.898,2730108.591,-0.03799,-0.09033,9.87249,4,3,6
19.914,2730108.61,-0.0332,-0.10469,9.88684,4,3,6
19.934,2730108.629,-0.04038,-0.0999,9.87967,4,3,6
19.954,2730108.648,-0.04516,-0.09511,9.87967,4,3,6
19.971,2730108.667,-0.04516,-0.08794,9.88684,4,3,6
19.989,2730108.686,-0.04516,-0.09272,9.87249,4,3,6
20.011,2730108.705,-0.04277,-0.09751,9.88445,4,3,6
20.029,2730108.724,-0.05234,-0.09511,9.89402,4,3,6
20.051,2730108.743,-0.04277,-0.10229,9.8677,4,3,6
20.07,2730108.762,-0.04995,-0.09033,9.91317,4,3,6
20.09,2730108.781,-0.05713,-0.09751,9.85574,4,3,6
20.109,2730108.8,-0.04756,-0.0999,9.89642,4,3,6
20.124,2730108.819,-0.05234,-0.09511,9.88206,4,3,6
20.142,2730108.838,-0.04277,-0.09511,9.86531,4,3,6
20.162,2730108.857,-0.04516,-0.09511,9.89881,4,3,6
20.181,2730108.876,-0.05713,-0.10229,9.87009,4,3,6
20.199,2730108.895,-0.03799,-0.09511,9.87249,4,3,6
20.219,2730108.915,-0.04516,-0.09751,9.89642,4,3,6
20.24,2730108.934,-0.03799,-0.09033,9.87249,4,3,6
20.26,2730108.953,-0.04516,-0.09272,9.88684,4,3,6
20.276,2730108.972,-0.04516,-0.10469,9.87967,4,3,6
20.295,2730108.991,-0.05713,-0.10469,9.88206,4,3,6
20.317,2730109.01,-0.03559,-0.09272,9.88206,4,3,6
20.336,2730109.029,-0.04516,-0.09272,9.87488,4,3,6
20.353,2730109.048,-0.03559,-0.07597,9.88684,4,3,6
20.371,2730109.067,-0.04756,-0.0999,9.88684,4,3,6
20.39,2730109.086,-0.04277,-0.09033,9.87967,4,3,6
20.407,2730109.105,-0.05234,-0.08794,9.88684,4,3,6
20.431,2730109.124,-0.03799,-0.08554,9.88206,4,3,6
20.448,2730109.143,-0.04277,-0.08794,9.87967,4,3,6
20.47,2730109.162,-0.04756,-0.08315,9.87967,4,3,6
20.484,2730109.181,-0.04756,-0.09033,9.88445,4,3,6
20.505,2730109.2,-0.05474,-0.09511,9.87727,4,3,6
20.524,2730109.219,-0.03799,-0.09511,9.88206,4,3,6
20.546,2730109.238,-0.04038,-0.08554,9.88445,4,3,6
20.565,2730109.257,-0.0332,-0.09511,9.87967,4,3,6
20.581,2730109.276,-0.03559,-0.09511,9.89402,4,3,6
20.602,2730109.295,-0.05234,-0.08315,9.86531,4,3,6
20.618,2730109.314,-0.04277,-0.08076,9.89642,4,3,6
20.637,2730109.333,-0.03559,-0.09511,9.87967,4,3,6
20.659,2730109.352,-0.04516,-0.08315,9.88206,4,3,6
20.676,2730109.371,-0.04756,-0.0999,9.89642,4,3,6
20.695,2730109.39,-0.04516,-0.08554,9.8677,4,3,6
20.714,2730109.409,-0.04038,-0.08554,9.88206,4,3,6
20.732,2730109.428,-0.04277,-0.09272,9.88684,4,3,6
20.752,2730109.447,-0.04995,-0.09272,9.87009,4,3,6
20.772,2730109.466,-0.04516,-0.08076,9.89163,4,3,6
20.789,2730109.485,-0.04516,-0.08076,9.87727,4,3,6
20.807,2730109.504,-0.04756,-0.0999,9.88206,4,3,6
20.831,2730109.523,-0.04038,-0.0999,9.88445,4,3,6
20.85,2730109.542,-0.04995,-0.09511,9.88206,4,3,6
20.869,2730109.561,-0.04277,-0.09751,9.88924,4,3,6
20.886,2730109.58,-0.03799,-0.0999,9.88206,4,3,6
20.904,2730109.599,-0.04516,-0.10469,9.88206,4,3,6
20.923,2730109.618,-0.04756,-0.09033,9.89163,4,3,6
20.942,2730109.637,-0.04277,-0.08315,9.87967,4,3,6
20.961,2730109.656,-0.04038,-0.08554,9.87009,4,3,6
20.979,2730109.675,-0.0332,-0.09033,9.88445,4,3,6
20.999,2730109.694,-0.03559,-0.09272,9.88445,4,3,6
21.016,2730109.713,-0.04516,-0.08076,9.87967,4,3,6
21.036,2730109.732,-0.04038,-0.08794,9.87488,4,3,6
21.055,2730109.751,-0.03799,-0.0999,9.88445,4,3,6
21.074,2730109.77,-0.04277,-0.09511,9.88924,4,3,6
21.093,2730109.789,-0.04516,-0.08315,9.8677,4,3,6
21.112,2730109.808,-0.03799,-0.0999,9.88445,4,3,6
21.135,2730109.828,-0.04277,-0.08794,9.87967,4,3,6
21.172,2730109.847,-0.04756,-0.09751,9.87488,4,3,6
21.172,2730109.866,-0.04516,-0.08554,9.88445,4,3,6
21.188,2730109.885,-0.04995,-0.09033,9.86292,4,3,6
21.207,2730109.904,-0.03799,-0.0999,9.89402,4,3,6
21.228,2730109.923,-0.04516,-0.09272,9.87488,4,3,6
21.246,2730109.942,-0.04516,-0.09272,9.87009,4,3,6
21.266,2730109.961,-0.02841,-0.08794,9.89163,4,3,6
21.282,2730109.98,-0.05234,-0.08554,9.87967,4,3,6
21.303,2730109.999,-0.04038,-0.08554,9.88684,4,3,6
21.323,2730110.018,-0.03799,-0.08315,9.9012,4,3,6
21.341,2730110.037,-0.02602,-0.08794,9.87727,4,3,6
21.36,2730110.056,-0.04516,-0.09033,9.89163,4,3,6
21.379,2730110.075,-0.05234,-0.09033,9.87249,4,3,6
21.397,2730110.094,-0.04038,-0.08794,9.88206,4,3,6
21.416,2730110.113,-0.04038,-0.08076,9.89642,4,3,6
21.436,2730110.132,-0.03799,-0.09511,9.88445,4,3,6
21.456,2730110.151,-0.0332,-0.08794,9.88445,4,3,6
21.476,2730110.17,-0.04516,-0.08554,9.88206,4,3,6
21.493,2730110.189,-0.0332,-0.08794,9.87967,4,3,6
21.511,2730110.208,-0.04038,-0.09033,9.87727,4,3,6
21.529,2730110.227,-0.03799,-0.08794,9.87727,4,3,6
21.548,2730110.246,-0.03559,-0.0999,9.88445,4,3,6
21.57,2730110.265,-0.04277,-0.10229,9.87727,4,3,6
21.587,2730110.284,-0.04277,-0.09511,9.88206,4,3,6
21.607,2730110.303,-0.04756,-0.09033,9.87488,4,3,6
21.63,2730110.322,-0.04277,-0.0999,9.87967,4,3,6
21.646,2730110.341,-0.03799,-0.09033,9.87009,4,3,6
21.668,2730110.36,-0.03799,-0.09511,9.88684,4,3,6
21.682,2730110.379,-0.04756,-0.08315,9.88924,4,3,6
21.703,2730110.398,-0.04756,-0.08794,9.87249,4,3,6
21.722,2730110.417,-0.04756,-0.09751,9.88684,4,3,6
21.744,2730110.436,-0.04756,-0.08794,9.88684,4,3,6
21.763,2730110.455,-0.0332,-0.08794,9.87488,4,3,6
21.782,2730110.474,-0.04756,-0.08794,9.88924,4,3,6
21.797,2730110.493,-0.03799,-0.08315,9.87727,4,3,6
21.818,2730110.512,-0.04277,-0.09511,9.87249,4,3,6
21.836,2730110.531,-0.04516,-0.09272,9.89163,4,3,6
21.858,2730110.55,-0.04277,-0.08554,9.86531,4,3,6
21.874,2730110.569,-0.04995,-0.09272,9.88684,4,3,6
21.892,2730110.588,-0.05234,-0.09511,9.87727,4,3,6
21.91,2730110.607,-0.04756,-0.09511,9.88445,4,3,6
21.929,2730110.626,-0.04277,-0.08794,9.88445,4,3,6
21.948,2730110.645,-0.05234,-0.08794,9.88445,4,3,6
21.968,2730110.664,-0.03559,-0.09272,9.87249,4,3,6
21.988,2730110.683,-0.04038,-0.09033,9.88445,4,3,6
22.007,2730110.702,-0.04995,-0.08794,9.87727,4,3,6
22.028,2730110.722,-0.04038,-0.08554,9.88684,4,3,6
22.045,2730110.741,-0.04516,-0.09033,9.87967,4,3,6
22.066,2730110.76,-0.04516,-0.09033,9.87727,4,3,6
22.089,2730110.779,-0.04038,-0.09751,9.87488,4,3,6
22.108,2730110.798,-0.04277,-0.09272,9.87967,4,3,6
22.121,2730110.817,-0.03799,-0.09033,9.87967,4,3,6
22.139,2730110.836,-0.04516,-0.08554,9.89402,4,3,6
22.159,2730110.855,-0.03799,-0.10947,9.87727,4,3,6
22.178,2730110.874,-0.04756,-0.08554,9.87727,4,3,6
22.196,2730110.893,-0.04756,-0.07836,9.88684,4,3,6
22.216,2730110.912,-0.04516,-0.09272,9.87009,4,3,6
22.234,2730110.931,-0.04516,-0.09511,9.88206,4,3,6
22.257,2730110.95,-0.03799,-0.09751,9.87967,4,3,6
22.273,2730110.969,-0.04038,-0.08076,9.87488,4,3,6
22.292,2730110.988,-0.04516,-0.09033,9.88924,4,3,6
22.31,2730111.007,-0.04038,-0.08554,9.87249,4,3,6
22.331,2730111.026,-0.02602,-0.08554,9.87967,4,3,6
22.347,2730111.045,-0.04038,-0.09511,9.89881,4,3,6
22.367,2730111.064,-0.04756,-0.09272,9.88445,4,3,6
22.387,2730111.083,-0.04277,-0.09751,9.87967,4,3,6
22.407,2730111.102,-0.03559,-0.10469,9.87967,4,3,6
22.426,2730111.121,-0.03799,-0.09751,9.88445,4,3,6
22.445,2730111.14,-0.04995,-0.0999,9.88445,4,3,6
22.464,2730111.159,-0.05474,-0.08794,9.88206,4,3,6
22.485,2730111.178,-0.05234,-0.08794,9.88445,4,3,6
22.503,2730111.197,-0.03799,-0.09511,9.89163,4,3,6
22.52,2730111.216,-0.05474,-0.08076,9.87488,4,3,6
22.539,2730111.235,-0.04277,-0.10229,9.88206,4,3,6
22.559,2730111.254,-0.04516,-0.09751,9.87967,4,3,6
22.58,2730111.273,-0.04995,-0.09272,9.87488,4,3,6
22.596,2730111.292,-0.04277,-0.09511,9.87249,4,3,6
22.615,2730111.311,-0.04277,-0.09751,9.88206,4,3,6
22.634,2730111.33,-0.03799,-0.08076,9.88684,4,3,6
22.654,2730111.349,-0.03559,-0.09272,9.87488,4,3,6
22.672,2730111.368,-0.04756,-0.09272,9.90838,4,3,6
22.692,2730111.387,-0.04756,-0.09272,9.86531,4,3,6
22.71,2730111.406,-0.0332,-0.09751,9.88924,4,3,6
22.73,2730111.425,-0.03799,-0.09751,9.88445,4,3,6
22.753,2730111.444,-0.04277,-0.07597,9.8677,4,3,6
22.768,2730111.463,-0.04277,-0.09751,9.89402,4,3,6
22.788,2730111.482,-0.04995,-0.07836,9.87488,4,3,6
22.807,2730111.501,-0.04756,-0.08315,9.88445,4,3,6
22.825,2730111.52,-0.04756,-0.09272,9.88684,4,3,6
22.846,2730111.539,-0.05474,-0.10469,9.87249,4,3,6
22.865,2730111.558,-0.04277,-0.10229,9.88445,4,3,6
22.882,2730111.577,-0.04038,-0.09272,9.88684,4,3,6
22.9,2730111.596,-0.04516,-0.09272,9.87249,4,3,6
22.919,2730111.615,-0.04516,-0.09511,9.89163,4,3,6
22.943,2730111.635,-0.04516,-0.08794,9.87009,4,3,6
22.957,2730111.654,-0.04516,-0.08794,9.88684,4,3,6
22.976,2730111.673,-0.04277,-0.09511,9.88684,4,3,6
22.998,2730111.692,-0.03559,-0.08794,9.87967,4,3,6
23.014,2730111.711,-0.04038,-0.08794,9.87488,4,3,6
23.033,2730111.73,-0.04038,-0.08794,9.89163,4,3,6
23.054,2730111.749,-0.04516,-0.10708,9.87727,4,3,6
23.076,2730111.768,-0.03799,-0.09511,9.89163,4,3,6
23.091,2730111.787,-0.04756,-0.09272,9.88206,4,3,6
23.108,2730111.806,-0.04277,-0.09033,9.88684,4,3,6
23.128,2730111.825,-0.04516,-0.08794,9.87967,4,3,6
23.147,2730111.844,-0.04995,-0.08794,9.89881,4,3,6
23.172,2730111.863,-0.04516,-0.09511,9.87249,4,3,6
23.184,2730111.882,-0.04038,-0.0999,9.87009,4,3,6
23.206,2730111.901,-0.04038,-0.09033,9.89642,4,3,6
23.225,2730111.92,-0.04756,-0.09272,9.87727,4,3,6
23.243,2730111.939,-0.04038,-0.08794,9.88684,4,3,6
23.261,2730111.958,-0.04756,-0.09272,9.88684,4,3,6
23.283,2730111.977,-0.04038,-0.09272,9.86292,4,3,6
23.298,2730111.996,-0.0332,-0.08315,9.89881,4,3,6
23.319,2730112.015,-0.04277,-0.08554,9.8677,4,3,6
23.338,2730112.034,-0.04277,-0.08315,9.87967,4,3,6
23.361,2730112.053,-0.04038,-0.09033,9.88445,4,3,6
23.376,2730112.072,-0.04995,-0.07597,9.87727,4,3,6
23.395,2730112.091,-0.04756,-0.09033,9.87488,4,3,6
23.414,2730112.11,-0.04038,-0.08794,9.88924,4,3,6
23.432,2730112.129,-0.04756,-0.09272,9.87727,4,3,6
23.453,2730112.148,-0.04277,-0.09751,9.88924,4,3,6
23.472,2730112.167,-0.04995,-0.10229,9.87967,4,3,6
23.489,2730112.186,-0.04516,-0.09272,9.87488,4,3,6
23.51,2730112.205,-0.03559,-0.08315,9.88684,4,3,6
23.528,2730112.224,-0.04995,-0.08076,9.87488,4,3,6
23.549,2730112.243,-0.04516,-0.09511,9.87967,4,3,6
23.566,2730112.262,-0.04516,-0.08794,9.87967,4,3,6
23.584,2730112.281,-0.03559,-0.09272,9.87967,4,3,6
23.605,2730112.3,-0.04038,-0.09272,9.87249,4,3,6
23.628,2730112.319,-0.04038,-0.09272,9.87488,4,3,6
23.642,2730112.338,-0.05713,-0.08076,9.89163,4,3,6
23.664,2730112.357,-0.0332,-0.08794,9.88445,4,3,6
23.68,2730112.376,-0.04038,-0.0999,9.87009,4,3,6
23.704,2730112.395,-0.04516,-0.08794,9.91556,4,3,6
23.718,2730112.414,-0.04995,-0.09033,9.84138,4,3,6
23.737,2730112.433,-0.04516,-0.09511,9.89642,4,3,6
23.755,2730112.452,-0.03799,-0.09511,9.88445,4,3,6
23.775,2730112.471,-0.04038,-0.09033,9.8677,4,3,6
23.793,2730112.49,-0.03799,-0.09272,9.90359,4,3,6
23.811,2730112.509,-0.04277,-0.09033,9.87009,4,3,6
23.83,2730112.529,-0.03559,-0.09751,9.88445,4,3,6
23.852,2730112.548,-0.03799,-0.09751,9.90838,4,3,6
23.871,2730112.567,-0.05474,-0.0999,9.87967,4,3,6
23.889,2730112.586,-0.04756,-0.08794,9.87967,4,3,6
23.907,2730112.605,-0.04038,-0.09511,9.87967,4,3,6
23.931,2730112.624,-0.03799,-0.09511,9.87249,4,3,6
23.95,2730112.643,-0.04756,-0.08794,9.88684,4,3,6
23.966,2730112.662,-0.04516,-0.08794,9.87967,4,3,6
23.985,2730112.681,-0.04756,-0.08554,9.87967,4,3,6
24.005,2730112.7,-0.03799,-0.08794,9.88684,4,3,6
24.027,2730112.719,-0.05474,-0.08794,9.8677,4,3,6
24.042,2730112.738,-0.04038,-0.09272,9.88206,4,3,6
24.061,2730112.757,-0.04277,-0.10469,9.88445,4,3,6
24.082,2730112.776,-0.05234,-0.09033,9.87967,4,3,6
24.099,2730112.795,-0.04038,-0.09751,9.87967,4,3,6
24.118,2730112.814,-0.04756,-0.09511,9.88206,4,3,6
24.137,2730112.833,-0.03799,-0.10229,9.87967,4,3,6
24.156,2730112.852,-0.04995,-0.08076,9.88206,4,3,6
24.175,2730112.871,-0.04756,-0.08794,9.87727,4,3,6
24.194,2730112.89,-0.04995,-0.09272,9.87488,4,3,6
24.213,2730112.909,-0.04516,-0.08794,9.88924,4,3,6
24.232,2730112.928,-0.03559,-0.10229,9.8677,4,3,6
24.252,2730112.947,-0.03081,-0.08315,9.92274,4,3,6
24.271,2730112.966,-0.04756,-0.09272,9.84138,4,3,6
24.289,2730112.985,-0.04756,-0.09751,9.91317,4,3,6
24.308,2730113.004,-0.04038,-0.09272,9.86531,4,3,6
24.332,2730113.023,-0.04756,-0.0999,9.86531,4,3,6
24.351,2730113.042,-0.04038,-0.0999,9.90359,4,3,6
24.369,2730113.061,-0.04995,-0.08554,9.8677,4,3,6
24.383,2730113.08,-0.03559,-0.09751,9.87249,4,3,6
24.402,2730113.099,-0.04277,-0.09272,9.89881,4,3,6
24.425,2730113.118,-0.05234,-0.09511,9.86052,4,3,6
24.443,2730113.137,-0.04277,-0.09033,9.89881,4,3,6
24.465,2730113.156,-0.03799,-0.0999,9.87967,4,3,6
24.482,2730113.175,-0.04516,-0.09751,9.87967,4,3,6
24.502,2730113.194,-0.0332,-0.09033,9.89642,4,3,6
24.519,2730113.213,-0.04038,-0.10469,9.8677,4,3,6
24.536,2730113.232,-0.03799,-0.08794,9.88924,4,3,6
24.557,2730113.251,-0.04038,-0.09272,9.89402,4,3,6
24.577,2730113.27,-0.04756,-0.09751,9.87009,4,3,6
24.596,2730113.289,-0.04516,-0.08794,9.88924,4,3,6
24.612,2730113.308,-0.03559,-0.10469,9.88445,4,3,6
24.631,2730113.327,-0.04516,-0.09511,9.87727,4,3,6
24.651,2730113.346,-0.05474,-0.07597,9.88924,4,3,6
24.67,2730113.365,-0.05234,-0.09272,9.87727,4,3,6
24.689,2730113.384,-0.04995,-0.08794,9.88206,4,3,6
24.711,2730113.403,-0.04756,-0.10229,9.87967,4,3,6
24.727,2730113.422,-0.04277,-0.08794,9.88206,4,3,6
24.749,2730113.442,-0.04995,-0.09751,9.88445,4,3,6
24.769,2730113.461,-0.05713,-0.10708,9.88445,4,3,6
24.783,2730113.48,-0.04756,-0.08076,9.89881,4,3,6
24.803,2730113.499,-0.03799,-0.0999,9.85334,4,3,6
24.826,2730113.518,-0.03799,-0.09511,9.90838,4,3,6
24.841,2730113.537,-0.04038,-0.09751,9.87009,4,3,6
24.862,2730113.556,-0.04277,-0.10229,9.87009,4,3,6
24.883,2730113.575,-0.04277,-0.10469,9.90838,4,3,6
24.899,2730113.594,-0.03559,-0.08554,9.85813,4,3,6
24.916,2730113.613,-0.03559,-0.08554,9.89642,4,3,6
24.936,2730113.632,-0.03559,-0.10229,9.88206,4,3,6
24.955,2730113.651,-0.04277,-0.09511,9.85574,4,3,6
24.974,2730113.67,-0.04995,-0.09751,9.9012,4,3,6
24.993,2730113.689,-0.04995,-0.07358,9.88684,4,3,6
25.011,2730113.708,-0.03799,-0.09751,9.87009,4,3,6
25.031,2730113.727,-0.03559,-0.10229,9.89642,4,3,6
25.052,2730113.746,-0.04516,-0.08554,9.86531,4,3,6
25.07,2730113.765,-0.04756,-0.08554,9.88445,4,3,6
25.092,2730113.784,-0.03081,-0.08794,9.88445,4,3,6
25.108,2730113.803,-0.05713,-0.09272,9.87488,4,3,6
25.126,2730113.822,-0.03081,-0.09511,9.88684,4,3,6
25.15,2730113.841,-0.04038,-0.09272,9.88206,4,3,6
25.173,2730113.86,-0.04038,-0.08315,9.87249,4,3,6
25.182,2730113.879,-0.04756,-0.08076,9.88684,4,3,6
25.201,2730113.898,-0.04995,-0.09033,9.87967,4,3,6
25.222,2730113.917,-0.04995,-0.10708,9.88445,4,3,6
25.239,2730113.936,-0.04277,-0.10469,9.88206,4,3,6
25.259,2730113.955,-0.04756,-0.08554,9.89642,4,3,6
25.278,2730113.974,-0.04277,-0.10229,9.85095,4,3,6
25.299,2730113.993,-0.04277,-0.09751,9.90838,4,3,6
25.318,2730114.012,-0.03559,-0.09272,9.86531,4,3,6
25.335,2730114.031,-0.04756,-0.10708,9.87488,4,3,6
25.357,2730114.05,-0.03081,-0.08315,9.88924,4,3,6
25.374,2730114.069,-0.03799,-0.08076,9.87249,4,3,6
25.392,2730114.088,-0.0332,-0.09033,9.87727,4,3,6
25.41,2730114.107,-0.04277,-0.08554,9.91077,4,3,6
25.431,2730114.126,-0.04038,-0.08076,9.85095,4,3,6
25.448,2730114.145,-0.03799,-0.09033,9.91556,4,3,6
25.47,2730114.164,-0.03559,-0.08794,9.87488,4,3,6
25.488,2730114.183,-0.05234,-0.09751,9.87727,4,3,6
25.508,2730114.202,-0.04516,-0.09272,9.89642,4,3,6
25.527,2730114.221,-0.04516,-0.07836,9.87009,4,3,6
25.545,2730114.24,-0.04277,-0.09033,9.88206,4,3,6
25.568,2730114.259,-0.02841,-0.09751,9.89402,4,3,6
25.586,2730114.278,-0.04516,-0.0999,9.8677,4,3,6
25.603,2730114.297,-0.04038,-0.08076,9.89402,4,3,6
25.621,2730114.316,-0.0332,-0.07358,9.87488,4,3,6
25.64,2730114.335,-0.03559,-0.08554,9.87727,4,3,6
25.659,2730114.355,-0.03799,-0.10229,9.89402,4,3,6
25.681,2730114.374,-0.04756,-0.09033,9.87967,4,3,6
25.701,2730114.393,-0.04038,-0.08794,9.87488,4,3,6
25.715,2730114.412,-0.02602,-0.09511,9.87727,4,3,6
25.736,2730114.431,-0.04995,-0.08554,9.87727,4,3,6
25.758,2730114.45,-0.03799,-0.08076,9.88924,4,3,6
25.772,2730114.469,-0.05234,-0.08554,9.86531,4,3,6
25.792,2730114.488,-0.04516,-0.08794,9.88924,4,3,6
25.81,2730114.507,-0.04277,-0.09511,9.88684,4,3,6
25.829,2730114.526,-0.03559,-0.09272,9.86292,4,3,6
25.851,2730114.545,-0.04277,-0.09272,9.9012,4,3,6
25.871,2730114.564,-0.04756,-0.09272,9.87488,4,3,6
25.887,2730114.583,-0.05713,-0.08315,9.8677,4,3,6
25.907,2730114.602,-0.04277,-0.09511,9.89642,4,3,6
25.929,2730114.621,-0.0332,-0.08794,9.87249,4,3,6
25.949,2730114.64,-0.04995,-0.0999,9.89163,4,3,6
25.966,2730114.659,-0.04756,-0.09033,9.88445,4,3,6
25.986,2730114.678,-0.05474,-0.09511,9.87249,4,3,6
26.0,2730114.697,-0.04038,-0.08794,9.88924,4,3,6
26.02,2730114.716,-0.03799,-0.09033,9.87967,4,3,6
26.039,2730114.735,-0.04038,-0.09751,9.87249,4,3,6
26.059,2730114.754,-0.04516,-0.10469,9.88684,4,3,6
26.08,2730114.773,-0.0332,-0.09033,9.87727,4,3,6
26.105,2730114.792,-0.04038,-0.09272,9.88206,4,3,6
26.115,2730114.811,-0.04995,-0.09511,9.89402,4,3,6
26.133,2730114.83,-0.04038,-0.09033,9.87967,4,3,6
26.151,2730114.849,-0.04995,-0.0999,9.88206,4,3,6
26.172,2730114.868,-0.04038,-0.08554,9.87727,4,3,6
26.191,2730114.887,-0.03799,-0.08076,9.88206,4,3,6
26.209,2730114.906,-0.04995,-0.08794,9.88684,4,3,6
26.229,2730114.925,-0.04516,-0.08794,9.87727,4,3,6
26.251,2730114.944,-0.03799,-0.09751,9.87967,4,3,6
26.269,2730114.963,-0.0332,-0.08315,9.89402,4,3,6
26.286,2730114.982,-0.04756,-0.09751,9.87488,4,3,6
26.311,2730115.001,-0.03081,-0.09751,9.89402,4,3,6
26.327,2730115.02,-0.04038,-0.09033,9.87249,4,3,6
26.345,2730115.039,-0.03799,-0.09751,9.87967,4,3,6
26.365,2730115.058,-0.04277,-0.08315,9.88445,4,3,6
26.383,2730115.077,-0.04516,-0.09511,9.87488,4,3,6
26.399,2730115.096,-0.05234,-0.0999,9.88445,4,3,6
26.419,2730115.115,-0.04756,-0.09272,9.88924,4,3,6
26.439,2730115.134,-0.04038,-0.09033,9.85813,4,3,6
26.458,2730115.153,-0.04995,-0.09511,9.9012,4,3,6
26.477,2730115.172,-0.03559,-0.09751,9.88445,4,3,6
26.495,2730115.191,-0.03559,-0.06879,9.8677,4,3,6
26.513,2730115.21,-0.03559,-0.09272,9.9012,4,3,6
26.533,2730115.229,-0.04038,-0.09751,9.87967,4,3,6
26.553,2730115.249,-0.04995,-0.0999,9.88445,4,3,6
26.572,2730115.268,-0.05234,-0.08315,9.89163,4,3,6
26.59,2730115.287,-0.05234,-0.09272,9.87727,4,3,6
26.608,2730115.306,-0.03799,-0.10229,9.88445,4,3,6
26.632,2730115.325,-0.04995,-0.10229,9.89642,4,3,6
26.648,2730115.344,-0.04516,-0.09272,9.87009,4,3,6
26.668,2730115.363,-0.04516,-0.09751,9.88684,4,3,6
26.685,2730115.382,-0.05234,-0.09272,9.87727,4,3,6
26.704,2730115.401,-0.04277,-0.07836,9.88445,4,3,6
26.723,2730115.42,-0.04756,-0.10229,9.88924,4,3,6
26.744,2730115.439,-0.04277,-0.08794,9.88445,4,3,6
26.762,2730115.458,-0.04277,-0.09511,9.88206,4,3,6
26.781,2730115.477,-0.03799,-0.0999,9.87967,4,3,6
26.8,2730115.496,-0.04756,-0.08794,9.87009,4,3,6
26.818,2730115.515,-0.03559,-0.0999,9.87727,4,3,6
26.837,2730115.534,-0.03559,-0.09272,9.87967,4,3,6
26.858,2730115.553,-0.04038,-0.09751,9.87009,4,3,6
26.875,2730115.572,-0.04995,-0.0999,9.88924,4,3,6
26.894,2730115.591,-0.04516,-0.09033,9.87488,4,3,6
26.913,2730115.61,-0.04038,-0.09511,9.87727,4,3,6
26.931,2730115.629,-0.03559,-0.09272,9.88684,4,3,6
26.951,2730115.648,-0.04995,-0.09033,9.87967,4,3,6
26.972,2730115.667,-0.05713,-0.08794,9.88445,4,3,6
26.988,2730115.686,-0.04995,-0.09751,9.88924,4,3,6
27.007,2730115.705,-0.04995,-0.08315,9.87488,4,3,6
27.026,2730115.724,-0.04756,-0.09272,9.88684,4,3,6
27.047,2730115.743,-0.04038,-0.08554,9.88206,4,3,6
27.065,2730115.762,-0.04516,-0.08076,9.88206,4,3,6
27.083,2730115.781,-0.04516,-0.08554,9.87488,4,3,6
27.107,2730115.8,-0.04516,-0.09751,9.89163,4,3,6
27.122,2730115.819,-0.04756,-0.0999,9.88206,4,3,6
27.148,2730115.838,-0.04756,-0.08794,9.88206,4,3,6
27.172,2730115.857,-0.04516,-0.10708,9.88206,4,3,6
27.179,2730115.876,-0.04756,-0.0999,9.88924,4,3,6
27.198,2730115.895,-0.04038,-0.09033,9.88684,4,3,6
27.217,2730115.914,-0.04038,-0.08076,9.88206,4,3,6
27.236,2730115.933,-0.04995,-0.09272,9.88445,4,3,6
27.256,2730115.952,-0.04995,-0.08794,9.88206,4,3,6
27.278,2730115.971,-0.04277,-0.08794,9.88445,4,3,6
27.294,2730115.99,-0.04516,-0.09511,9.88206,4,3,6
27.312,2730116.009,-0.04756,-0.09272,9.87967,4,3,6
27.331,2730116.028,-0.05234,-0.09033,9.88206,4,3,6
27.351,2730116.047,-0.04756,-0.09511,9.88924,4,3,6
27.37,2730116.066,-0.03799,-0.09511,9.87488,4,3,6
27.389,2730116.085,-0.04516,-0.0999,9.88206,4,3,6
27.407,2730116.104,-0.04756,-0.10229,9.88206,4,3,6
27.427,2730116.123,-0.04995,-0.09511,9.88445,4,3,6
27.451,2730116.142,-0.03799,-0.09511,9.88206,4,3,6
27.471,2730116.162,-0.04038,-0.09751,9.87488,4,3,6
27.484,2730116.181,-0.05234,-0.0999,9.87967,4,3,6
27.504,2730116.2,-0.05234,-0.07836,9.87488,4,3,6
27.523,2730116.219,-0.04756,-0.10229,9.89402,4,3,6
27.542,2730116.238,-0.04038,-0.09751,9.87009,4,3,6
27.564,2730116.257,-0.03799,-0.09033,9.88924,4,3,6
27.583,2730116.276,-0.03559,-0.10469,9.87488,4,3,6
27.598,2730116.295,-0.04516,-0.08315,9.88445,4,3,6
27.618,2730116.314,-0.05713,-0.10469,9.87727,4,3,6
27.636,2730116.333,-0.04038,-0.09511,9.88684,4,3,6
27.656,2730116.352,-0.04038,-0.09272,9.88206,4,3,6
27.674,2730116.371,-0.03799,-0.09511,9.89402,4,3,6
27.693,2730116.39,-0.04277,-0.08794,9.87967,4,3,6
27.712,2730116.409,-0.05474,-0.08554,9.88445,4,3,6
27.732,2730116.428,-0.04038,-0.08554,9.87009,4,3,6
27.75,2730116.447,-0.04277,-0.08554,9.88684,4,3,6
27.77,2730116.466,-0.04277,-0.0999,9.87249,4,3,6
27.788,2730116.485,-0.04277,-0.09511,9.88684,4,3,6
27.808,2730116.504,-0.04516,-0.08794,9.88445,4,3,6
27.831,2730116.523,-0.04995,-0.08794,9.89163,4,3,6
27.85,2730116.542,-0.05234,-0.08794,9.88445,4,3,6
27.868,2730116.561,-0.04038,-0.08554,9.88445,4,3,6
27.883,2730116.58,-0.04756,-0.08315,9.87727,4,3,6
27.902,2730116.599,-0.04277,-0.0999,9.88445,4,3,6
27.926,2730116.618,-0.04038,-0.10708,9.88206,4,3,6
27.942,2730116.637,-0.04277,-0.08794,9.88206,4,3,6
27.961,2730116.656,-0.06909,-0.09272,9.88684,4,3,6
27.981,2730116.675,-0.04038,-0.09033,9.8677,4,3,6
27.998,2730116.694,-0.03799,-0.08315,9.89163,4,3,6
28.017,2730116.713,-0.04038,-0.09272,9.88445,4,3,6
28.037,2730116.732,-0.05234,-0.09033,9.88924,4,3,6
28.054,2730116.751,-0.04277,-0.08794,9.88924,4,3,6
28.076,2730116.77,-0.03081,-0.09751,9.88684,4,3,6
28.094,2730116.789,-0.04038,-0.09033,9.88445,4,3,6
28.112,2730116.808,-0.04516,-0.0999,9.88206,4,3,6
28.13,2730116.827,-0.04277,-0.08554,9.88924,4,3,6
28.15,2730116.846,-0.03799,-0.09511,9.88684,4,3,6
28.169,2730116.865,-0.04756,-0.09751,9.87488,4,3,6
28.188,2730116.884,-0.04038,-0.08794,9.88445,4,3,6
28.207,2730116.903,-0.04277,-0.09033,9.88445,4,3,6
28.23,2730116.922,-0.04277,-0.09511,9.88445,4,3,6
28.249,2730116.941,-0.04756,-0.09272,9.87967,4,3,6
28.268,2730116.96,-0.04516,-0.09033,9.88924,4,3,6
28.284,2730116.979,-0.03081,-0.08794,9.88924,4,3,6
28.302,2730116.998,-0.03799,-0.10229,9.88206,4,3,6
28.32,2730117.017,-0.04277,-0.08315,9.88445,4,3,6
28.339,2730117.036,-0.03799,-0.09272,9.88924,4,3,6
28.362,2730117.056,-0.04995,-0.08076,9.87488,4,3,6
28.378,2730117.075,-0.04756,-0.10469,9.88445,4,3,6
28.397,2730117.094,-0.05713,-0.07597,9.87727,4,3,6
28.416,2730117.113,-0.04277,-0.10708,9.87727,4,3,6
28.435,2730117.132,-0.04038,-0.09033,9.88924,4,3,6
28.455,2730117.151,-0.04516,-0.0999,9.88206,4,3,6
28.478,2730117.17,-0.04756,-0.09033,9.87967,4,3,6
28.493,2730117.189,-0.05474,-0.09272,9.89402,4,3,6
28.511,2730117.208,-0.04995,-0.09751,9.87727,4,3,6
28.529,2730117.227,-0.03559,-0.09033,9.88924,4,3,6
28.551,2730117.246,-0.04038,-0.09511,9.87249,4,3,6
28.57,2730117.265,-0.04516,-0.10229,9.88684,4,3,6
28.587,2730117.284,-0.04516,-0.09272,9.87727,4,3,6
28.611,2730117.303,-0.04756,-0.09511,9.88206,4,3,6
28.631,2730117.322,-0.04277,-0.07597,9.87727,4,3,6
28.646,2730117.341,-0.04038,-0.09751,9.89402,4,3,6
28.667,2730117.36,-0.04277,-0.09272,9.87967,4,3,6
28.682,2730117.379,-0.04277,-0.09272,9.88445,4,3,6
28.701,2730117.398,-0.04038,-0.08554,9.88445,4,3,6
28.722,2730117.417,-0.04756,-0.09511,9.88206,4,3,6
28.739,2730117.436,-0.04277,-0.09511,9.87727,4,3,6
28.76,2730117.455,-0.04277,-0.0999,9.87727,4,3,6
28.778,2730117.474,-0.04038,-0.09751,9.87967,4,3,6
28.797,2730117.493,-0.04756,-0.09511,9.88206,4,3,6
28.815,2730117.512,-0.04277,-0.09033,9.88206,4,3,6
28.835,2730117.531,-0.04756,-0.09511,9.87967,4,3,6
28.855,2730117.55,-0.05713,-0.08315,9.87967,4,3,6
28.878,2730117.569,-0.04277,-0.09272,9.89881,4,3,6
28.892,2730117.588,-0.04995,-0.09272,9.88206,4,3,6
28.909,2730117.607,-0.04756,-0.09751,9.88206,4,3,6
28.93,2730117.626,-0.04995,-0.09033,9.88445,4,3,6
28.95,2730117.645,-0.04516,-0.09751,9.88445,4,3,6
28.968,2730117.664,-0.04038,-0.09033,9.87967,4,3,6
28.988,2730117.683,-0.04038,-0.09511,9.87488,4,3,6
29.006,2730117.702,-0.04995,-0.08315,9.87727,4,3,6
29.03,2730117.721,-0.04756,-0.09751,9.87967,4,3,6
29.048,2730117.74,-0.04516,-0.08794,9.87249,4,3,6
29.064,2730117.759,-0.04516,-0.09272,9.89163,4,3,6
29.084,2730117.778,-0.05713,-0.08315,9.87967,4,3,6
29.106,2730117.797,-0.04277,-0.09751,9.88206,4,3,6
29.121,2730117.816,-0.04516,-0.10469,9.88206,4,3,6
29.14,2730117.835,-0.04277,-0.08794,9.87967,4,3,6
29.16,2730117.854,-0.04038,-0.10229,9.88684,4,3,6
29.178,2730117.873,-0.04756,-0.0999,9.88684,4,3,6
29.196,2730117.892,-0.04756,-0.09272,9.87727,4,3,6
29.216,2730117.911,-0.04756,-0.08315,9.88684,4,3,6
29.235,2730117.93,-0.03799,-0.09033,9.87488,4,3,6
29.254,2730117.949,-0.05474,-0.08554,9.87727,4,3,6
29.276,2730117.969,-0.04277,-0.08554,9.87488,4,3,6
29.292,2730117.988,-0.04995,-0.08794,9.87967,4,3,6
29.309,2730118.007,-0.04756,-0.09033,9.88206,4,3,6
29.331,2730118.026,-0.04756,-0.10229,9.87727,4,3,6
29.352,2730118.045,-0.04756,-0.0999,9.87967,4,3,6
29.369,2730118.064,-0.04038,-0.08554,9.88445,4,3,6
29.388,2730118.083,-0.05234,-0.10229,9.88684,4,3,6
29.408,2730118.102,-0.04277,-0.09511,9.88445,4,3,6
29.43,2730118.121,-0.04277,-0.09272,9.87727,4,3,6
29.449,2730118.14,-0.03081,-0.0999,9.86292,4,3,6
29.467,2730118.159,-0.04756,-0.0999,9.89642,4,3,6
29.485,2730118.178,-0.02841,-0.09272,9.87009,4,3,6
29.502,2730118.197,-0.04277,-0.10947,9.89642,4,3,6
29.521,2730118.216,-0.04516,-0.0999,9.87727,4,3,6
29.539,2730118.235,-0.04756,-0.09511,9.89402,4,3,6
29.561,2730118.254,-0.04995,-0.09751,9.87727,4,3,6
29.581,2730118.273,-0.04756,-0.09272,9.89642,4,3,6
29.599,2730118.292,-0.05713,-0.08315,9.87249,4,3,6
29.617,2730118.311,-0.0332,-0.08794,9.88445,4,3,6
29.633,2730118.33,-0.04995,-0.08315,9.87488,4,3,6
29.658,2730118.349,-0.04516,-0.08554,9.88445,4,3,6
29.672,2730118.368,-0.04277,-0.0999,9.87967,4,3,6
29.691,2730118.387,-0.04516,-0.08076,9.88206,4,3,6
29.709,2730118.406,-0.05234,-0.09272,9.87967,4,3,6
29.727,2730118.425,-0.04277,-0.08554,9.87967,4,3,6
29.748,2730118.444,-0.04277,-0.08554,9.88684,4,3,6
29.769,2730118.463,-0.04277,-0.10229,9.87727,4,3,6
29.788,2730118.482,-0.05474,-0.08315,9.89402,4,3,6
29.806,2730118.501,-0.04995,-0.09272,9.87727,4,3,6
29.829,2730118.52,-0.04756,-0.10229,9.89402,4,3,6
29.843,2730118.539,-0.04995,-0.08554,9.87727,4,3,6
29.863,2730118.558,-0.05234,-0.08554,9.88445,4,3,6
29.887,2730118.577,-0.05474,-0.09272,9.87488,4,3,6
29.902,2730118.596,-0.05474,-0.08076,9.88684,4,3,6
29.919,2730118.615,-0.04756,-0.09033,9.88445,4,3,6
29.941,2730118.634,-0.04277,-0.0999,9.89163,4,3,6
29.958,2730118.653,-0.04277,-0.08554,9.87727,4,3,6
29.98,2730118.672,-0.03559,-0.09511,9.88445,4,3,6
29.995,2730118.691,-0.04277,-0.08554,9.88206,4,3,6
30.018,2730118.71,-0.05234,-0.0999,9.88445,4,3,6
30.033,2730118.729,-0.04277,-0.08554,9.88684,4,3,6
30.052,2730118.748,-0.03799,-0.08554,9.88445,4,3,6
30.072,2730118.767,-0.04277,-0.09033,9.88206,4,3,6
30.094,2730118.786,-0.04516,-0.0999,9.89163,4,3,6
30.108,2730118.805,-0.03799,-0.09033,9.8677,4,3,6
30.128,2730118.824,-0.04277,-0.08554,9.89402,4,3,6
30.147,2730118.843,-0.04995,-0.09033,9.8677,4,3,6
30.165,2730118.863,-0.04756,-0.09511,9.87727,4,3,6
30.184,2730118.882,-0.04756,-0.09751,9.87967,4,3,6
30.204,2730118.901,-0.05234,-0.09751,9.87727,4,3,6
30.225,2730118.92,-0.04516,-0.08315,9.88445,4,3,6
30.244,2730118.939,-0.04756,-0.09033,9.89402,4,3,6
30.262,2730118.958,-0.04516,-0.09033,9.87727,4,3,6
30.285,2730118.977,-0.04756,-0.09511,9.89402,4,3,6
30.301,2730118.996,-0.04277,-0.10229,9.87967,4,3,6
30.32,2730119.015,-0.04277,-0.07836,9.88206,4,3,6
30.34,2730119.034,-0.03799,-0.08554,9.88206,4,3,6
30.36,2730119.053,-0.04516,-0.08076,9.88445,4,3,6
30.376,2730119.072,-0.04995,-0.09033,9.88445,4,3,6
30.395,2730119.091,-0.03799,-0.08554,9.88924,4,3,6
30.414,2730119.11,-0.04516,-0.09033,9.88445,4,3,6
30.433,2730119.129,-0.04038,-0.08794,9.88445,4,3,6
30.452,2730119.148,-0.04277,-0.09272,9.88445,4,3,6
30.475,2730119.167,-0.03559,-0.08554,9.87967,4,3,6
30.49,2730119.186,-0.04277,-0.09511,9.88924,4,3,6
30.507,2730119.205,-0.04038,-0.10229,9.87967,4,3,6
30.527,2730119.224,-0.03081,-0.09511,9.88206,4,3,6
30.552,2730119.243,-0.04277,-0.09511,9.88445,4,3,6
30.566,2730119.262,-0.05234,-0.08315,9.87009,4,3,6
30.586,2730119.281,-0.05474,-0.09751,9.87967,4,3,6
30.604,2730119.3,-0.03559,-0.09751,9.88924,4,3,6
30.625,2730119.319,-0.04516,-0.0999,9.87967,4,3,6
30.642,2730119.338,-0.03559,-0.10229,9.88684,4,3,6
30.664,2730119.357,-0.04516,-0.09511,9.87488,4,3,6
30.684,2730119.376,-0.04756,-0.09751,9.88206,4,3,6
30.702,2730119.395,-0.04516,-0.09272,9.87488,4,3,6
30.718,2730119.414,-0.04995,-0.09033,9.89163,4,3,6
30.738,2730119.433,-0.04995,-0.07836,9.87009,4,3,6
30.76,2730119.452,-0.04756,-0.08315,9.89402,4,3,6
30.778,2730119.471,-0.04995,-0.09272,9.88445,4,3,6
30.797,2730119.49,-0.03559,-0.08794,9.88206,4,3,6
30.814,2730119.509,-0.04277,-0.08794,9.89163,4,3,6
30.831,2730119.528,-0.04995,-0.08554,9.87249,4,3,6
30.851,2730119.547,-0.03559,-0.08554,9.88445,4,3,6
30.872,2730119.566,-0.04756,-0.09751,9.88445,4,3,6
30.89,2730119.585,-0.04516,-0.09033,9.88684,4,3,6
30.907,2730119.604,-0.03081,-0.09272,9.87967,4,3,6
30.929,2730119.623,-0.0332,-0.08794,9.88924,4,3,6
30.952,2730119.642,-0.04038,-0.09511,9.87249,4,3,6
30.971,2730119.661,-0.05474,-0.0999,9.87967,4,3,6
30.984,2730119.68,-0.04756,-0.0999,9.87488,4,3,6
31.006,2730119.699,-0.04756,-0.09272,9.88684,4,3,6
31.022,2730119.718,-0.04516,-0.09751,9.87727,4,3,6
31.041,2730119.737,-0.04038,-0.08076,9.87967,4,3,6
31.061,2730119.756,-0.04277,-0.09511,9.87727,4,3,6
31.079,2730119.776,-0.04756,-0.09751,9.88684,4,3,6
31.106,2730119.795,-0.04995,-0.08794,9.87967,4,3,6
31.118,2730119.814,-0.04995,-0.09751,9.87967,4,3,6
31.136,2730119.833,-0.04277,-0.09272,9.88684,4,3,6
31.17,2730119.852,-0.04277,-0.0999,9.87967,4,3,6
31.177,2730119.871,-0.04516,-0.09272,9.88206,4,3,6
31.194,2730119.89,-0.04277,-0.09272,9.88206,4,3,6
31.212,2730119.909,-0.05234,-0.0999,9.88684,4,3,6
31.231,2730119.928,-0.04756,-0.0999,9.88445,4,3,6
31.249,2730119.947,-0.05234,-0.0999,9.89163,4,3,6
31.268,2730119.966,-0.03799,-0.08315,9.87727,4,3,6
31.287,2730119.985,-0.04277,-0.09272,9.88684,4,3,6
31.306,2730120.004,-0.03799,-0.0999,9.87249,4,3,6
31.326,2730120.023,-0.04516,-0.09511,9.89402,4,3,6
31.345,2730120.042,-0.04516,-0.09511,9.87249,4,3,6
31.363,2730120.061,-0.04038,-0.09272,9.89642,4,3,6
31.382,2730120.08,-0.04277,-0.07836,9.87249,4,3,6
31.401,2730120.099,-0.04038,-0.09751,9.89163,4,3,6
31.421,2730120.118,-0.04516,-0.08794,9.87727,4,3,6
31.439,2730120.137,-0.04756,-0.08554,9.87727,4,3,6
31.459,2730120.156,-0.04038,-0.09272,9.87967,4,3,6
31.477,2730120.175,-0.04516,-0.09033,9.87967,4,3,6
31.497,2730120.194,-0.03799,-0.09511,9.87967,4,3,6
31.515,2730120.213,-0.04038,-0.09511,9.89163,4,3,6
31.535,2730120.232,-0.03799,-0.08315,9.88445,4,3,6
31.554,2730120.251,-0.05234,-0.0999,9.88206,4,3,6
31.573,2730120.27,-0.05234,-0.10947,9.89163,4,3,6
31.592,2730120.289,-0.03799,-0.09751,9.87967,4,3,6
31.61,2730120.308,-0.04995,-0.10229,9.88684,4,3,6
31.629,2730120.327,-0.04038,-0.09751,9.88445,4,3,6
31.649,2730120.346,-0.04277,-0.08794,9.88206,4,3,6
31.668,2730120.365,-0.04277,-0.08794,9.88445,4,3,6
31.687,2730120.384,-0.0332,-0.09033,9.88924,4,3,6
31.707,2730120.403,-0.04995,-0.10229,9.88445,4,3,6
31.728,2730120.422,-0.04995,-0.09033,9.87967,4,3,6
31.745,2730120.441,-0.03559,-0.08794,9.88206,4,3,6
31.766,2730120.46,-0.03081,-0.0999,9.87967,4,3,6
31.784,2730120.479,-0.04756,-0.09511,9.88445,4,3,6
31.802,2730120.498,-0.0332,-0.08315,9.88206,4,3,6
31.825,2730120.517,-0.04756,-0.08315,9.88924,4,3,6
31.841,2730120.536,-0.03799,-0.09272,9.87727,4,3,6
31.859,2730120.555,-0.04995,-0.08315,9.89402,4,3,6
31.878,2730120.574,-0.03081,-0.09751,9.88206,4,3,6
31.901,2730120.593,-0.03799,-0.08794,9.88924,4,3,6
31.916,2730120.612,-0.04038,-0.09751,9.88206,4,3,6
31.935,2730120.631,-0.04995,-0.09033,9.88924,4,3,6
31.954,2730120.65,-0.05234,-0.09511,9.87727,4,3,6
31.977,2730120.67,-0.0332,-0.10469,9.88924,4,3,6
31.995,2730120.689,-0.03799,-0.09033,9.87009,4,3,6
32.011,2730120.708,-0.04756,-0.09272,9.87967,4,3,6
32.031,2730120.727,-0.04995,-0.10229,9.88684,4,3,6
32.049,2730120.746,-0.04038,-0.09511,9.88924,4,3,6
32.07,2730120.765,-0.04995,-0.07836,9.88445,4,3,6
32.087,2730120.784,-0.04516,-0.09751,9.87967,4,3,6
32.108,2730120.803,-0.05234,-0.09033,9.88445,4,3,6
32.127,2730120.822,-0.05713,-0.08794,9.88924,4,3,6
32.146,2730120.841,-0.04516,-0.09033,9.87488,4,3,6
32.163,2730120.86,-0.04756,-0.09033,9.88924,4,3,6
32.182,2730120.879,-0.04995,-0.10469,9.88684,4,3,6
32.2,2730120.898,-0.03799,-0.09751,9.87727,4,3,6
32.221,2730120.917,-0.04516,-0.09751,9.87967,4,3,6
32.24,2730120.936,-0.04277,-0.07597,9.88445,4,3,6
32.263,2730120.955,-0.03799,-0.10469,9.88684,4,3,6
32.28,2730120.974,-0.0332,-0.09751,9.88206,4,3,6
32.299,2730120.993,-0.03081,-0.09751,9.88684,4,3,6
32.315,2730121.012,-0.03559,-0.10229,9.8677,4,3,6
32.338,2730121.031,-0.05474,-0.09511,9.88684,4,3,6
32.354,2730121.05,-0.04995,-0.09511,9.87967,4,3,6
32.373,2730121.069,-0.04277,-0.09272,9.89402,4,3,6
32.391,2730121.088,-0.04756,-0.08315,9.88206,4,3,6
32.411,2730121.107,-0.04516,-0.11186,9.87727,4,3,6
32.428,2730121.126,-0.04756,-0.09272,9.89163,4,3,6
32.451,2730121.145,-0.04995,-0.09272,9.88445,4,3,6
32.466,2730121.164,-0.05234,-0.09033,9.88684,4,3,6
32.487,2730121.183,-0.04516,-0.0999,9.87488,4,3,6
32.506,2730121.202,-0.03799,-0.0999,9.87488,4,3,6
32.526,2730121.221,-0.04038,-0.0999,9.88206,4,3,6
32.549,2730121.24,-0.04756,-0.08794,9.88206,4,3,6
32.566,2730121.259,-0.03081,-0.08315,9.87727,4,3,6
32.587,2730121.278,-0.04516,-0.08076,9.87967,4,3,6
32.602,2730121.297,-0.04038,-0.0999,9.88206,4,3,6
32.621,2730121.316,-0.04277,-0.09033,9.87967,4,3,6
32.644,2730121.335,-0.04756,-0.08794,9.87727,4,3,6
32.659,2730121.354,-0.05234,-0.09751,9.87727,4,3,6
32.678,2730121.373,-0.03799,-0.09511,9.88206,4,3,6
32.698,2730121.392,-0.03081,-0.09511,9.88445,4,3,6
32.715,2730121.411,-0.05713,-0.07836,9.88445,4,3,6
32.734,2730121.43,-0.04038,-0.0999,9.88445,4,3,6
32.756,2730121.449,-0.05713,-0.09751,9.87967,4,3,6
32.776,2730121.468,-0.05234,-0.08315,9.88684,4,3,6
32.792,2730121.487,-0.04038,-0.0999,9.87967,4,3,6
32.809,2730121.506,-0.05234,-0.08076,9.88206,4,3,6
32.831,2730121.525,-0.05474,-0.09033,9.88206,4,3,6
32.848,2730121.544,-0.04277,-0.09511,9.88684,4,3,6
32.871,2730121.563,-0.04277,-0.07836,9.88206,4,3,6
32.887,2730121.583,-0.04038,-0.09272,9.88206,4,3,6
32.906,2730121.602,-0.04277,-0.09511,9.88206,4,3,6
32.929,2730121.621,-0.05713,-0.09272,9.88684,4,3,6
32.946,2730121.64,-0.04756,-0.09511,9.88445,4,3,6
32.964,2730121.659,-0.04756,-0.0999,9.87967,4,3,6
32.986,2730121.678,-0.04038,-0.08554,9.88445,4,3,6
33.001,2730121.697,-0.04277,-0.09033,9.88445,4,3,6
33.02,2730121.716,-0.04995,-0.09751,9.88445,4,3,6
33.039,2730121.735,-0.04995,-0.08315,9.87967,4,3,6
33.058,2730121.754,-0.04516,-0.08554,9.88206,4,3,6
33.077,2730121.773,-0.04516,-0.09751,9.88684,4,3,6
33.096,2730121.792,-0.03799,-0.0999,9.88684,4,3,6
33.113,2730121.811,-0.04038,-0.08554,9.87967,4,3,6
33.135,2730121.83,-0.04277,-0.09751,9.88206,4,3,6
33.164,2730121.849,-0.03799,-0.08794,9.88445,4,3,6
33.171,2730121.868,-0.03799,-0.09751,9.88684,4,3,6
33.19,2730121.887,-0.04995,-0.09511,9.88924,4,3,6
33.209,2730121.906,-0.04277,-0.08315,9.87727,4,3,6
33.227,2730121.925,-0.04756,-0.10947,9.88924,4,3,6
33.25,2730121.944,-0.04516,-0.09511,9.87488,4,3,6
33.269,2730121.963,-0.04277,-0.09751,9.88206,4,3,6
33.285,2730121.982,-0.04516,-0.09033,9.88924,4,3,6
33.306,2730122.001,-0.03559,-0.08076,9.88206,4,3,6
33.326,2730122.02,-0.04756,-0.09751,9.88206,4,3,6
33.347,2730122.039,-0.04277,-0.09511,9.87967,4,3,6
33.367,2730122.058,-0.05474,-0.09272,9.87967,4,3,6
33.382,2730122.077,-0.03799,-0.09511,9.87727,4,3,6
33.4,2730122.096,-0.05474,-0.09511,9.88924,4,3,6
33.418,2730122.115,-0.04277,-0.08794,9.87967,4,3,6
33.438,2730122.134,-0.03799,-0.08554,9.88684,4,3,6
33.458,2730122.153,-0.03799,-0.08076,9.87727,4,3,6
33.479,2730122.172,-0.04038,-0.10229,9.87727,4,3,6
33.497,2730122.191,-0.04756,-0.09511,9.88206,4,3,6
33.514,2730122.21,-0.03559,-0.09511,9.87488,4,3,6
33.536,2730122.229,-0.04038,-0.09751,9.87967,4,3,6
33.553,2730122.248,-0.04516,-0.08794,9.89163,4,3,6
33.572,2730122.267,-0.04277,-0.10708,9.88206,4,3,6
33.589,2730122.286,-0.04277,-0.09751,9.88206,4,3,6
33.608,2730122.305,-0.04038,-0.09272,9.87249,4,3,6
33.632,2730122.324,-0.04038,-0.08554,9.88206,4,3,6
33.648,2730122.343,-0.03559,-0.09272,9.87727,4,3,6
33.667,2730122.362,-0.04516,-0.08554,9.87727,4,3,6
33.685,2730122.381,-0.02841,-0.09511,9.88206,4,3,6
33.706,2730122.4,-0.04277,-0.10229,9.88206,4,3,6
33.724,2730122.419,-0.04995,-0.10229,9.88445,4,3,6
33.742,2730122.438,-0.04516,-0.10469,9.88684,4,3,6
33.765,2730122.457,-0.03799,-0.09511,9.88206,4,3,6
33.786,2730122.477,-0.03799,-0.08554,9.87727,4,3,6
33.802,2730122.496,-0.04756,-0.08794,9.87967,4,3,6
33.819,2730122.515,-0.03559,-0.08315,9.88206,4,3,6
33.838,2730122.534,-0.03799,-0.09511,9.88445,4,3,6
33.856,2730122.553,-0.04038,-0.10229,9.88206,4,3,6
33.88,2730122.572,-0.04277,-0.09272,9.88445,4,3,6
33.897,2730122.591,-0.04995,-0.08315,9.87967,4,3,6
33.918,2730122.61,-0.03799,-0.09751,9.88924,4,3,6
33.933,2730122.629,-0.04038,-0.08315,9.87967,4,3,6
33.952,2730122.648,-0.03559,-0.08554,9.88206,4,3,6
33.971,2730122.667,-0.05234,-0.0999,9.87967,4,3,6
33.989,2730122.686,-0.04277,-0.08794,9.87727,4,3,6
34.007,2730122.705,-0.04038,-0.09033,9.87249,4,3,6
34.027,2730122.724,-0.05234,-0.09033,9.87727,4,3,6
34.048,2730122.743,-0.04516,-0.09751,9.88445,4,3,6
34.065,2730122.762,-0.04756,-0.08315,9.88684,4,3,6
34.085,2730122.781,-0.04516,-0.08794,9.87967,4,3,6
34.107,2730122.8,-0.05234,-0.0999,9.88924,4,3,6
34.123,2730122.819,-0.04277,-0.09511,9.88445,4,3,6
34.143,2730122.838,-0.03799,-0.09511,9.87727,4,3,6
34.161,2730122.857,-0.04516,-0.09511,9.88445,4,3,6
34.18,2730122.876,-0.03799,-0.09511,9.87967,4,3,6
34.198,2730122.895,-0.04516,-0.08554,9.88206,4,3,6
34.217,2730122.914,-0.04756,-0.09033,9.87249,4,3,6
34.237,2730122.933,-0.05474,-0.08794,9.87967,4,3,6
34.26,2730122.952,-0.05234,-0.08554,9.88206,4,3,6
34.278,2730122.971,-0.04756,-0.08554,9.87727,4,3,6
34.296,2730122.99,-0.05474,-0.09033,9.89402,4,3,6
34.312,2730123.009,-0.05234,-0.08315,9.88684,4,3,6
34.331,2730123.028,-0.05474,-0.07119,9.87967,4,3,6
34.352,2730123.047,-0.05234,-0.09751,9.87967,4,3,6
34.37,2730123.066,-0.04995,-0.09751,9.89402,4,3,6
34.388,2730123.085,-0.04516,-0.09033,9.88206,4,3,6
34.407,2730123.104,-0.04038,-0.09033,9.87727,4,3,6
34.434,2730123.123,-0.05234,-0.09511,9.88206,4,3,6
34.447,2730123.142,-0.04756,-0.09272,9.88206,4,3,6
34.466,2730123.161,-0.0332,-0.08315,9.88445,4,3,6
34.486,2730123.18,-0.04277,-0.08315,9.88206,4,3,6
34.504,2730123.199,-0.04277,-0.08076,9.88684,4,3,6
34.523,2730123.218,-0.04277,-0.09272,9.88445,4,3,6
34.545,2730123.237,-0.04038,-0.09511,9.87488,4,3,6
34.561,2730123.256,-0.04038,-0.09033,9.89163,4,3,6
34.58,2730123.275,-0.04277,-0.10469,9.89163,4,3,6
34.598,2730123.294,-0.05474,-0.08794,9.87967,4,3,6
34.617,2730123.313,-0.04756,-0.09033,9.87967,4,3,6
34.64,2730123.332,-0.04756,-0.09272,9.88206,4,3,6
34.655,2730123.351,-0.04995,-0.08794,9.87967,4,3,6
34.675,2730123.37,-0.04516,-0.09033,9.88445,4,3,6
34.698,2730123.39,-0.0332,-0.09511,9.87488,4,3,6
34.711,2730123.409,-0.04756,-0.09272,9.88684,4,3,6
34.732,2730123.428,-0.04038,-0.08554,9.88445,4,3,6
34.751,2730123.447,-0.0332,-0.09272,9.87967,4,3,6
34.77,2730123.466,-0.04516,-0.08794,9.88445,4,3,6
34.789,2730123.485,-0.04038,-0.0999,9.88684,4,3,6
34.808,2730123.504,-0.05474,-0.0999,9.88206,4,3,6
34.827,2730123.523,-0.04756,-0.10469,9.88445,4,3,6
34.847,2730123.542,-0.03799,-0.0999,9.87249,4,3,6
34.869,2730123.561,-0.04038,-0.09751,9.88206,4,3,6
34.884,2730123.58,-0.03559,-0.0999,9.87488,4,3,6
34.902,2730123.599,-0.04277,-0.08794,9.87727,4,3,6
34.925,2730123.618,-0.04516,-0.09272,9.88206,4,3,6
34.941,2730123.637,-0.04995,-0.07358,9.88206,4,3,6
34.963,2730123.656,-0.04038,-0.08794,9.88445,4,3,6
34.984,2730123.675,-0.04277,-0.09511,9.88206,4,3,6
34.997,2730123.694,-0.05713,-0.09272,9.88206,4,3,6
35.016,2730123.713,-0.04995,-0.09751,9.87727,4,3,6
35.038,2730123.732,-0.0332,-0.10469,9.88445,4,3,6
35.057,2730123.751,-0.04277,-0.08794,9.88924,4,3,6
35.075,2730123.77,-0.04038,-0.08794,9.88445,4,3,6
35.097,2730123.789,-0.0332,-0.0999,9.88206,4,3,6
35.117,2730123.808,-0.0332,-0.10229,9.87967,4,3,6
35.132,2730123.827,-0.03799,-0.08315,9.87727,4,3,6
35.163,2730123.846,-0.05234,-0.09033,9.88445,4,3,6
35.169,2730123.865,-0.04038,-0.09511,9.87727,4,3,6
35.187,2730123.884,-0.04038,-0.0999,9.88206,4,3,6
35.208,2730123.903,-0.03559,-0.09511,9.87727,4,3,6
35.227,2730123.922,-0.03799,-0.09272,9.88684,4,3,6
35.245,2730123.941,-0.04038,-0.09511,9.87967,4,3,6
35.264,2730123.96,-0.04038,-0.08794,9.88206,4,3,6
35.281,2730123.979,-0.04277,-0.09511,9.88206,4,3,6
35.301,2730123.998,-0.03799,-0.0999,9.87967,4,3,6
35.32,2730124.017,-0.04995,-0.08315,9.87727,4,3,6
35.339,2730124.036,-0.04038,-0.09033,9.87727,4,3,6
35.358,2730124.055,-0.04516,-0.09272,9.87967,4,3,6
35.378,2730124.074,-0.03799,-0.09033,9.88206,4,3,6
35.396,2730124.093,-0.03799,-0.08554,9.87727,4,3,6
35.416,2730124.112,-0.04277,-0.08794,9.88445,4,3,6
35.435,2730124.131,-0.04038,-0.08794,9.87727,4,3,6
35.454,2730124.15,-0.04995,-0.10229,9.87488,4,3,6
35.475,2730124.169,-0.04756,-0.09033,9.87488,4,3,6
35.493,2730124.188,-0.04277,-0.09751,9.88445,4,3,6
35.51,2730124.207,-0.03799,-0.08794,9.87967,4,3,6
35.529,2730124.226,-0.03799,-0.09751,9.88206,4,3,6
35.549,2730124.245,-0.04516,-0.09272,9.88684,4,3,6
35.567,2730124.264,-0.04995,-0.09511,9.88206,4,3,6
35.587,2730124.284,-0.03799,-0.09272,9.88924,4,3,6
35.607,2730124.303,-0.04038,-0.09751,9.88206,4,3,6
35.628,2730124.322,-0.04277,-0.10229,9.87727,4,3,6
35.646,2730124.341,-0.04756,-0.0999,9.87488,4,3,6
35.663,2730124.36,-0.03799,-0.0999,9.88206,4,3,6
35.682,2730124.379,-0.04756,-0.09751,9.88445,4,3,6
35.701,2730124.398,-0.04995,-0.08315,9.88445,4,3,6
35.723,2730124.417,-0.05952,-0.08554,9.87967,4,3,6
35.739,2730124.436,-0.04756,-0.09033,9.88924,4,3,6
35.758,2730124.455,-0.04995,-0.09033,9.87488,4,3,6
35.777,2730124.474,-0.04756,-0.09511,9.88684,4,3,6
35.795,2730124.493,-0.05234,-0.10708,9.88924,4,3,6
35.814,2730124.512,-0.04277,-0.0999,9.88684,4,3,6
35.835,2730124.531,-0.04038,-0.09272,9.88206,4,3,6
35.852,2730124.55,-0.05234,-0.0999,9.88206,4,3,6
35.875,2730124.569,-0.03081,-0.10229,9.87967,4,3,6
35.894,2730124.588,-0.04756,-0.09751,9.87009,4,3,6
35.909,2730124.607,-0.04277,-0.09511,9.87967,4,3,6
35.928,2730124.626,-0.03559,-0.09033,9.88924,4,3,6
35.948,2730124.645,-0.04277,-0.0999,9.88684,4,3,6
35.966,2730124.664,-0.04995,-0.09033,9.87967,4,3,6
35.987,2730124.683,-0.04516,-0.08554,9.87727,4,3,6
36.005,2730124.702,-0.03799,-0.10229,9.88684,4,3,6
36.026,2730124.721,-0.04516,-0.10947,9.88206,4,3,6
36.043,2730124.74,-0.04756,-0.09033,9.88684,4,3,6
36.063,2730124.759,-0.04756,-0.09751,9.88924,4,3,6
36.081,2730124.778,-0.04995,-0.0999,9.88445,4,3,6
36.105,2730124.797,-0.04038,-0.09751,9.88206,4,3,6
36.119,2730124.816,-0.03799,-0.10229,9.88206,4,3,6
36.138,2730124.835,-0.0332,-0.09033,9.88924,4,3,6
36.157,2730124.854,-0.04038,-0.09033,9.87727,4,3,6
36.177,2730124.873,-0.04516,-0.0999,9.88684,4,3,6
36.195,2730124.892,-0.04516,-0.0999,9.88445,4,3,6
36.215,2730124.911,-0.04277,-0.07836,9.87249,4,3,6
36.233,2730124.93,-0.04038,-0.09272,9.87727,4,3,6
36.253,2730124.949,-0.03081,-0.08554,9.88445,4,3,6
36.272,2730124.968,-0.04516,-0.10229,9.88445,4,3,6
36.291,2730124.987,-0.04756,-0.09511,9.88445,4,3,6
36.309,2730125.006,-0.04277,-0.09272,9.88206,4,3,6
36.328,2730125.025,-0.03799,-0.09511,9.87488,4,3,6
36.35,2730125.044,-0.03799,-0.09751,9.88924,4,3,6
36.366,2730125.063,-0.04038,-0.09511,9.88445,4,3,6
36.386,2730125.082,-0.05474,-0.09033,9.88206,4,3,6
36.405,2730125.101,-0.04995,-0.07836,9.88445,4,3,6
36.424,2730125.12,-0.04038,-0.09272,9.87727,4,3,6
36.444,2730125.139,-0.04756,-0.08554,9.87967,4,3,6
36.462,2730125.158,-0.04038,-0.09272,9.87727,4,3,6
36.482,2730125.177,-0.04995,-0.10229,9.88206,4,3,6
36.499,2730125.197,-0.04995,-0.09511,9.87967,4,3,6
36.521,2730125.216,-0.04756,-0.08315,9.87727,4,3,6
36.538,2730125.235,-0.04516,-0.10947,9.89642,4,3,6
36.56,2730125.254,-0.04277,-0.08554,9.87967,4,3,6
36.576,2730125.273,-0.03559,-0.06162,9.89163,4,3,6
36.595,2730125.292,-0.04516,-0.09272,9.88206,4,3,6
36.615,2730125.311,-0.04756,-0.09751,9.88206,4,3,6
36.632,2730125.33,-0.05952,-0.10229,9.88445,4,3,6
36.651,2730125.349,-0.04516,-0.10229,9.88684,4,3,6
36.67,2730125.368,-0.02602,-0.09511,9.88684,4,3,6
36.69,2730125.387,-0.0332,-0.08554,9.87727,4,3,6
36.709,2730125.406,-0.03799,-0.08794,9.88684,4,3,6
36.728,2730125.425,-0.04277,-0.11665,9.88684,4,3,6
36.748,2730125.444,-0.04277,-0.09272,9.89163,4,3,6
36.767,2730125.463,-0.03799,-0.08794,9.88206,4,3,6
36.785,2730125.482,-0.04756,-0.09272,9.88684,4,3,6
36.805,2730125.501,-0.04516,-0.09272,9.88206,4,3,6
36.824,2730125.52,-0.04995,-0.08794,9.87967,4,3,6
36.842,2730125.539,-0.0332,-0.09511,9.87967,4,3,6
36.862,2730125.558,-0.05952,-0.09511,9.88924,4,3,6
36.884,2730125.577,-0.04756,-0.08554,9.88445,4,3,6
36.899,2730125.596,-0.04516,-0.09033,9.89642,4,3,6
36.918,2730125.615,-0.04516,-0.08554,9.87249,4,3,6
36.937,2730125.634,-0.04277,-0.09511,9.88445,4,3,6
36.958,2730125.653,-0.03081,-0.08794,9.88206,4,3,6
36.976,2730125.672,-0.04995,-0.09033,9.88684,4,3,6
36.996,2730125.691,-0.04277,-0.08554,9.88206,4,3,6
37.015,2730125.71,-0.04756,-0.09033,9.87967,4,3,6
37.034,2730125.729,-0.04277,-0.10469,9.87967,4,3,6
37.052,2730125.748,-0.04516,-0.0999,9.88206,4,3,6
37.071,2730125.767,-0.04038,-0.10229,9.88684,4,3,6
37.09,2730125.786,-0.04277,-0.09511,9.88445,4,3,6
37.114,2730125.805,-0.04277,-0.09751,9.88206,4,3,6
37.128,2730125.824,-0.03799,-0.09511,9.88206,4,3,6
37.148,2730125.843,-0.05234,-0.09751,9.88206,4,3,6
37.174,2730125.862,-0.04038,-0.09511,9.87967,4,3,6
37.184,2730125.881,-0.04277,-0.0999,9.87967,4,3,6
37.202,2730125.9,-0.04756,-0.0999,9.88445,4,3,6
37.222,2730125.919,-0.04756,-0.10469,9.87967,4,3,6
37.242,2730125.938,-0.04516,-0.09272,9.88684,4,3,6
37.261,2730125.957,-0.04038,-0.09751,9.87488,4,3,6
37.28,2730125.976,-0.04995,-0.08315,9.88684,4,3,6
37.298,2730125.995,-0.04277,-0.10469,9.89163,4,3,6
37.319,2730126.014,-0.04277,-0.09033,9.89163,4,3,6
37.337,2730126.033,-0.04038,-0.08315,9.87967,4,3,6
37.359,2730126.052,-0.05474,-0.0999,9.88684,4,3,6
37.378,2730126.071,-0.04516,-0.09033,9.88206,4,3,6
37.394,2730126.091,-0.03799,-0.09751,9.87967,4,3,6
37.417,2730126.11,-0.04038,-0.08315,9.88445,4,3,6
37.439,2730126.129,-0.04995,-0.08554,9.87967,4,3,6
37.451,2730126.148,-0.04756,-0.09272,9.88206,4,3,6
37.47,2730126.167,-0.04516,-0.08554,9.87967,4,3,6
37.49,2730126.186,-0.05713,-0.08554,9.88206,4,3,6
37.507,2730126.205,-0.05234,-0.08794,9.89163,4,3,6
37.527,2730126.224,-0.05713,-0.10469,9.88445,4,3,6
37.549,2730126.243,-0.04516,-0.09272,9.88445,4,3,6
37.568,2730126.262,-0.04038,-0.09272,9.88684,4,3,6
37.584,2730126.281,-0.04756,-0.0999,9.88684,4,3,6
37.604,2730126.3,-0.04516,-0.09033,9.88206,4,3,6
37.626,2730126.319,-0.04277,-0.0999,9.88445,4,3,6
37.642,2730126.338,-0.03559,-0.08315,9.87727,4,3,6
37.661,2730126.357,-0.04038,-0.08315,9.88684,4,3,6
37.68,2730126.376,-0.05234,-0.09272,9.87727,4,3,6
37.699,2730126.395,-0.05713,-0.08554,9.88445,4,3,6
37.719,2730126.414,-0.04516,-0.10229,9.88684,4,3,6
37.738,2730126.433,-0.04756,-0.10229,9.87727,4,3,6
37.759,2730126.452,-0.04516,-0.10708,9.88206,4,3,6
37.78,2730126.471,-0.04516,-0.0999,9.87727,4,3,6
37.794,2730126.49,-0.04516,-0.09272,9.87727,4,3,6
37.811,2730126.509,-0.03559,-0.09272,9.87488,4,3,6
37.834,2730126.528,-0.04756,-0.08794,9.88684,4,3,6
37.851,2730126.547,-0.04038,-0.09033,9.8677,4,3,6
37.871,2730126.566,-0.04277,-0.09751,9.87967,4,3,6
37.89,2730126.585,-0.04995,-0.09033,9.87967,4,3,6
37.907,2730126.604,-0.05713,-0.09511,9.87967,4,3,6
37.932,2730126.623,-0.04277,-0.08794,9.89402,4,3,6
37.952,2730126.642,-0.03799,-0.09272,9.87967,4,3,6
37.968,2730126.661,-0.04756,-0.09751,9.88206,4,3,6
37.985,2730126.68,-0.04516,-0.09033,9.89163,4,3,6
38.005,2730126.699,-0.04516,-0.09511,9.88206,4,3,6
38.023,2730126.718,-0.04756,-0.08794,9.87967,4,3,6
38.041,2730126.737,-0.04277,-0.08554,9.88206,4,3,6
38.062,2730126.756,-0.04038,-0.09751,9.87488,4,3,6
38.081,2730126.775,-0.04516,-0.07836,9.87249,4,3,6
38.099,2730126.794,-0.03799,-0.07597,9.88924,4,3,6
38.117,2730126.813,-0.03559,-0.08315,9.88206,4,3,6
38.137,2730126.832,-0.04756,-0.08315,9.88206,4,3,6
38.155,2730126.851,-0.04277,-0.10469,9.88445,4,3,6
38.174,2730126.87,-0.03799,-0.08554,9.88206,4,3,6
38.192,2730126.889,-0.04516,-0.09751,9.87488,4,3,6
38.211,2730126.908,-0.04038,-0.09033,9.87727,4,3,6
38.231,2730126.927,-0.04038,-0.09033,9.87727,4,3,6
38.25,2730126.946,-0.05234,-0.09511,9.87967,4,3,6
38.27,2730126.965,-0.04516,-0.09272,9.88684,4,3,6
38.288,2730126.984,-0.04516,-0.09511,9.88445,4,3,6
38.308,2730127.004,-0.04995,-0.10229,9.88206,4,3,6
38.332,2730127.023,-0.04516,-0.09511,9.88206,4,3,6
38.346,2730127.042,-0.03799,-0.10469,9.87009,4,3,6
38.367,2730127.061,-0.04995,-0.0999,9.88206,4,3,6
38.384,2730127.08,-0.03799,-0.09272,9.88206,4,3,6
38.403,2730127.099,-0.04756,-0.08794,9.87727,4,3,6
38.423,2730127.118,-0.03799,-0.08554,9.88206,4,3,6
38.44,2730127.137,-0.04038,-0.09033,9.88445,4,3,6
38.459,2730127.156,-0.03799,-0.09033,9.88206,4,3,6
38.477,2730127.175,-0.04756,-0.09751,9.88684,4,3,6
38.496,2730127.194,-0.03559,-0.09751,9.87967,4,3,6
38.516,2730127.213,-0.04277,-0.09511,9.88206,4,3,6
38.534,2730127.232,-0.04277,-0.0999,9.88684,4,3,6
38.554,2730127.251,-0.05234,-0.09751,9.88206,4,3,6
38.572,2730127.27,-0.0332,-0.08554,9.88206,4,3,6
38.592,2730127.289,-0.04516,-0.08554,9.88445,4,3,6
38.611,2730127.308,-0.04277,-0.09751,9.87727,4,3,6
38.63,2730127.327,-0.02602,-0.09751,9.87488,4,3,6
38.65,2730127.346,-0.04277,-0.09511,9.87967,4,3,6
38.669,2730127.365,-0.04277,-0.0999,9.87967,4,3,6
38.686,2730127.384,-0.04038,-0.09033,9.88206,4,3,6
38.708,2730127.403,-0.04756,-0.09511,9.88206,4,3,6
38.729,2730127.422,-0.03799,-0.09272,9.88684,4,3,6
38.746,2730127.441,-0.04516,-0.10229,9.87967,4,3,6
38.767,2730127.46,-0.04756,-0.08794,9.88445,4,3,6
38.785,2730127.479,-0.04038,-0.08554,9.88206,4,3,6
38.802,2730127.498,-0.04756,-0.07358,9.88445,4,3,6
38.821,2730127.517,-0.04995,-0.0999,9.88206,4,3,6
38.84,2730127.536,-0.03559,-0.08315,9.87967,4,3,6
38.862,2730127.555,-0.04038,-0.09033,9.88684,4,3,6
38.881,2730127.574,-0.04516,-0.10229,9.88206,4,3,6
38.901,2730127.593,-0.03799,-0.09511,9.88206,4,3,6
38.916,2730127.612,-0.05234,-0.09272,9.88445,4,3,6
38.935,2730127.631,-0.04277,-0.08794,9.87727,4,3,6
38.958,2730127.65,-0.05952,-0.07836,9.88445,4,3,6
38.976,2730127.669,-0.04756,-0.0999,9.88445,4,3,6
38.996,2730127.688,-0.04995,-0.09272,9.88445,4,3,6
39.009,2730127.707,-0.04516,-0.08794,9.88206,4,3,6
39.029,2730127.726,-0.03799,-0.09751,9.88206,4,3,6
39.048,2730127.745,-0.04038,-0.09033,9.89163,4,3,6
39.069,2730127.764,-0.04277,-0.09272,9.88924,4,3,6
39.086,2730127.783,-0.04277,-0.09033,9.88445,4,3,6
39.114,2730127.802,-0.05234,-0.09033,9.87967,4,3,6
39.126,2730127.821,-0.04756,-0.09272,9.88684,4,3,6
39.148,2730127.84,-0.04995,-0.10229,9.88445,4,3,6
39.168,2730127.859,-0.0332,-0.09272,9.88924,4,3,6
39.182,2730127.878,-0.04516,-0.08794,9.87727,4,3,6
39.201,2730127.898,-0.04516,-0.09033,9.88445,4,3,6
39.222,2730127.917,-0.04277,-0.09272,9.87727,4,3,6
39.239,2730127.936,-0.04277,-0.10229,9.87967,4,3,6
39.259,2730127.955,-0.04516,-0.09272,9.88684,4,3,6
39.279,2730127.974,-0.03799,-0.09511,9.88206,4,3,6
39.299,2730127.993,-0.04277,-0.09033,9.88206,4,3,6
39.316,2730128.012,-0.04516,-0.09751,9.88206,4,3,6
39.334,2730128.031,-0.04516,-0.08794,9.87727,4,3,6
39.354,2730128.05,-0.04516,-0.09272,9.88206,4,3,6
39.374,2730128.069,-0.03559,-0.10229,9.88445,4,3,6
39.392,2730128.088,-0.04038,-0.09272,9.88206,4,3,6
39.409,2730128.107,-0.0332,-0.09033,9.88445,4,3,6
39.428,2730128.126,-0.05234,-0.09511,9.89163,4,3,6
39.449,2730128.145,-0.04516,-0.0999,9.88206,4,3,6
39.466,2730128.164,-0.03799,-0.09751,9.88445,4,3,6
39.487,2730128.183,-0.04277,-0.08554,9.88445,4,3,6
39.506,2730128.202,-0.04038,-0.09751,9.88445,4,3,6
39.527,2730128.221,-0.03799,-0.10947,9.87967,4,3,6
39.544,2730128.24,-0.04038,-0.0999,9.88206,4,3,6
39.565,2730128.259,-0.04038,-0.09033,9.87967,4,3,6
39.581,2730128.278,-0.03799,-0.09033,9.88924,4,3,6
39.602,2730128.297,-0.04038,-0.09511,9.87967,4,3,6
39.622,2730128.316,-0.04756,-0.09272,9.88445,4,3,6
39.642,2730128.335,-0.0332,-0.09272,9.88924,4,3,6
39.658,2730128.354,-0.05234,-0.09511,9.87967,4,3,6
39.677,2730128.373,-0.03799,-0.08315,9.87727,4,3,6
39.699,2730128.392,-0.04756,-0.10469,9.89163,4,3,6
39.717,2730128.411,-0.04277,-0.0999,9.87727,4,3,6
39.736,2730128.43,-0.04277,-0.0999,9.88924,4,3,6
39.757,2730128.449,-0.04756,-0.09511,9.88445,4,3,6
39.775,2730128.468,-0.04277,-0.09272,9.88924,4,3,6
39.791,2730128.487,-0.0332,-0.09272,9.88445,4,3,6
39.809,2730128.506,-0.03559,-0.10229,9.88445,4,3,6
39.831,2730128.525,-0.04995,-0.09511,9.87727,4,3,6
39.848,2730128.544,-0.0667,-0.08794,9.88924,4,3,6
39.867,2730128.563,-0.04277,-0.09511,9.87488,4,3,6
39.887,2730128.582,-0.05234,-0.08315,9.88684,4,3,6
39.905,2730128.601,-0.04516,-0.08076,9.88445,4,3,6
39.926,2730128.62,-0.04516,-0.09033,9.87967,4,3,6
39.944,2730128.639,-0.04277,-0.08794,9.88684,4,3,6
39.961,2730128.658,-0.04756,-0.09272,9.87967,4,3,6
39.982,2730128.677,-0.05234,-0.10229,9.88206,4,3,6
39.999,2730128.696,-0.05474,-0.10229,9.88206,4,3,6
40.018,2730128.715,-0.05234,-0.08794,9.87727,4,3,6
40.039,2730128.734,-0.04756,-0.0999,9.88206,4,3,6
40.058,2730128.753,-0.04277,-0.08554,9.88924,4,3,6
40.076,2730128.772,-0.04756,-0.08794,9.88206,4,3,6
40.096,2730128.791,-0.04038,-0.0999,9.88445,4,3,6
40.113,2730128.811,-0.04277,-0.10469,9.88445,4,3,6
40.134,2730128.83,-0.04756,-0.09511,9.87727,4,3,6
40.152,2730128.849,-0.04277,-0.09272,9.87727,4,3,6
40.172,2730128.868,-0.04277,-0.09511,9.87727,4,3,6
40.19,2730128.887,-0.04277,-0.08794,9.87488,4,3,6
40.207,2730128.906,-0.04516,-0.09033,9.88206,4,3,6
40.23,2730128.925,-0.04277,-0.07836,9.87249,4,3,6
40.251,2730128.944,-0.04038,-0.0999,9.89163,4,3,6
40.269,2730128.963,-0.03559,-0.08315,9.88206,4,3,6
40.285,2730128.982,-0.04277,-0.09272,9.88206,4,3,6
40.305,2730129.001,-0.03559,-0.08794,9.87727,4,3,6
40.327,2730129.02,-0.04038,-0.08554,9.87967,4,3,6
40.343,2730129.039,-0.04277,-0.09033,9.87967,4,3,6
40.366,2730129.058,-0.04277,-0.09272,9.88206,4,3,6
40.386,2730129.077,-0.04516,-0.08794,9.87727,4,3,6
40.399,2730129.096,-0.04277,-0.08794,9.88924,4,3,6
40.419,2730129.115,-0.04516,-0.08794,9.88684,4,3,6
40.438,2730129.134,-0.04516,-0.08554,9.88684,4,3,6
40.457,2730129.153,-0.05234,-0.09033,9.87488,4,3,6
40.476,2730129.172,-0.05234,-0.09751,9.88924,4,3,6
40.495,2730129.191,-0.05234,-0.08554,9.8677,4,3,6
40.513,2730129.21,-0.04756,-0.09272,9.87967,4,3,6
40.532,2730129.229,-0.03559,-0.10229,9.87249,4,3,6
40.552,2730129.248,-0.04995,-0.08554,9.88445,4,3,6
40.572,2730129.267,-0.04277,-0.10708,9.87967,4,3,6
40.59,2730129.286,-0.03799,-0.09033,9.87967,4,3,6
40.607,2730129.305,-0.04756,-0.10229,9.88206,4,3,6
40.632,2730129.324,-0.04995,-0.08794,9.88684,4,3,6
40.65,2730129.343,-0.03799,-0.09511,9.88445,4,3,6
40.667,2730129.362,-0.03559,-0.09751,9.87488,4,3,6
40.684,2730129.381,-0.02841,-0.08794,9.87727,4,3,6
40.705,2730129.4,-0.05234,-0.09272,9.88684,4,3,6
40.724,2730129.419,-0.04038,-0.09751,9.88924,4,3,6
40.744,2730129.438,-0.04995,-0.08315,9.87727,4,3,6
40.765,2730129.457,-0.04516,-0.09033,9.87727,4,3,6
40.784,2730129.476,-0.04516,-0.09511,9.88684,4,3,6
40.801,2730129.495,-0.04516,-0.08076,9.88684,4,3,6
40.819,2730129.514,-0.04516,-0.08076,9.88924,4,3,6
40.837,2730129.533,-0.04756,-0.09272,9.88206,4,3,6
40.861,2730129.552,-0.04038,-0.09272,9.88206,4,3,6
40.875,2730129.571,-0.04277,-0.10229,9.88445,4,3,6
40.895,2730129.59,-0.03799,-0.09272,9.88684,4,3,6
40.915,2730129.609,-0.03799,-0.10469,9.87967,4,3,6
40.933,2730129.628,-0.04516,-0.08794,9.88684,4,3,6
40.952,2730129.647,-0.03559,-0.08554,9.88445,4,3,6
40.972,2730129.666,-0.03559,-0.09033,9.88684,4,3,6
40.989,2730129.685,-0.04277,-0.09033,9.88445,4,3,6
41.009,2730129.705,-0.03799,-0.09272,9.88445,4,3,6
41.027,2730129.724,-0.03559,-0.09511,9.88206,4,3,6
41.048,2730129.743,-0.04277,-0.10947,9.87727,4,3,6
41.067,2730129.762,-0.03799,-0.09272,9.88684,4,3,6
41.084,2730129.781,-0.04516,-0.09511,9.88206,4,3,6
41.104,2730129.8,-0.05474,-0.0999,9.87727,4,3,6
41.123,2730129.819,-0.04038,-0.08794,9.88924,4,3,6
41.149,2730129.838,-0.04277,-0.09511,9.87727,4,3,6
41.175,2730129.857,-0.05234,-0.09272,9.89163,4,3,6
41.183,2730129.876,-0.05474,-0.08076,9.88924,4,3,6
41.198,2730129.895,-0.04516,-0.07597,9.87009,4,3,6
41.217,2730129.914,-0.05474,-0.09033,9.88684,4,3,6
41.237,2730129.933,-0.04277,-0.10469,9.88684,4,3,6
41.256,2730129.952,-0.04038,-0.09033,9.88445,4,3,6
41.278,2730129.971,-0.04038,-0.0999,9.88206,4,3,6
41.294,2730129.99,-0.04277,-0.09751,9.87727,4,3,6
41.312,2730130.009,-0.04277,-0.08076,9.87727,4,3,6
41.331,2730130.028,-0.04516,-0.09033,9.87967,4,3,6
41.352,2730130.047,-0.04516,-0.09272,9.88445,4,3,6
41.371,2730130.066,-0.03799,-0.10229,9.88924,4,3,6
41.389,2730130.085,-0.02841,-0.08554,9.87727,4,3,6
41.407,2730130.104,-0.04516,-0.08554,9.88206,4,3,6
41.428,2730130.123,-0.04995,-0.09033,9.88206,4,3,6
41.451,2730130.142,-0.04038,-0.09272,9.88684,4,3,6
41.469,2730130.161,-0.04516,-0.08554,9.88445,4,3,6
41.484,2730130.18,-0.03559,-0.09033,9.88924,4,3,6
41.503,2730130.199,-0.03559,-0.09511,9.87967,4,3,6
41.527,2730130.218,-0.04516,-0.09272,9.88206,4,3,6
41.545,2730130.237,-0.04277,-0.0999,9.87727,4,3,6
41.563,2730130.256,-0.03799,-0.09033,9.88684,4,3,6
41.579,2730130.275,-0.04516,-0.08315,9.88206,4,3,6
41.601,2730130.294,-0.05234,-0.09272,9.87967,4,3,6
41.618,2730130.313,-0.04756,-0.09751,9.88445,4,3,6
41.64,2730130.332,-0.04277,-0.10947,9.88206,4,3,6
41.659,2730130.351,-0.04038,-0.0999,9.88684,4,3,6
41.674,2730130.37,-0.04038,-0.09033,9.87727,4,3,6
41.694,2730130.389,-0.05234,-0.0999,9.88206,4,3,6
41.715,2730130.408,-0.04277,-0.10229,9.87967,4,3,6
41.732,2730130.427,-0.04756,-0.09272,9.88206,4,3,6
41.75,2730130.446,-0.04756,-0.07358,9.88206,4,3,6
41.772,2730130.465,-0.04516,-0.08315,9.88206,4,3,6
41.788,2730130.484,-0.03799,-0.09511,9.88445,4,3,6
41.807,2730130.503,-0.05234,-0.09272,9.88445,4,3,6
41.827,2730130.522,-0.04756,-0.0999,9.87967,4,3,6
41.846,2730130.541,-0.05713,-0.10708,9.88445,4,3,6
41.865,2730130.56,-0.04038,-0.10229,9.88445,4,3,6
41.885,2730130.579,-0.02841,-0.08554,9.88445,4,3,6
41.903,2730130.598,-0.04038,-0.09272,9.87727,4,3,6
41.922,2730130.618,-0.04277,-0.09751,9.88206,4,3,6
41.941,2730130.637,-0.03799,-0.0999,9.88206,4,3,6
41.961,2730130.656,-0.04038,-0.08554,9.88206,4,3,6
41.978,2730130.675,-0.03799,-0.09272,9.86531,4,3,6
41.999,2730130.694,-0.04277,-0.09511,9.89402,4,3,6
42.018,2730130.713,-0.04277,-0.08315,9.88445,4,3,6
42.039,2730130.732,-0.04516,-0.09272,9.88924,4,3,6
42.058,2730130.751,-0.04995,-0.09033,9.8677,4,3,6
42.074,2730130.77,-0.04277,-0.09272,9.88445,4,3,6
42.099,2730130.789,-0.0332,-0.0999,9.88206,4,3,6
42.115,2730130.808,-0.04516,-0.08794,9.88445,4,3,6
42.13,2730130.827,-0.04516,-0.08315,9.87009,4,3,6
42.15,2730130.846,-0.04277,-0.08554,9.89163,4,3,6
42.168,2730130.865,-0.03799,-0.08315,9.87727,4,3,6
42.186,2730130.884,-0.03799,-0.08315,9.88924,4,3,6
42.207,2730130.903,-0.03081,-0.09272,9.87249,4,3,6
42.227,2730130.922,-0.04756,-0.08794,9.89163,4,3,6
42.245,2730130.941,-0.04038,-0.0999,9.87727,4,3,6
42.266,2730130.96,-0.03799,-0.09751,9.88445,4,3,6
42.285,2730130.979,-0.04277,-0.09751,9.87967,4,3,6
42.302,2730130.998,-0.04277,-0.08315,9.87967,4,3,6
42.322,2730131.017,-0.03799,-0.09751,9.89163,4,3,6
42.341,2730131.036,-0.04038,-0.08554,9.88445,4,3,6
42.364,2730131.055,-0.04516,-0.09272,9.88924,4,3,6
42.381,2730131.074,-0.04277,-0.09033,9.87727,4,3,6
42.397,2730131.093,-0.04038,-0.10229,9.87727,4,3,6
42.415,2730131.112,-0.03799,-0.09511,9.88684,4,3,6
42.436,2730131.131,-0.04756,-0.10229,9.87967,4,3,6
42.458,2730131.15,-0.03081,-0.0999,9.88206,4,3,6
42.472,2730131.169,-0.04516,-0.10229,9.89402,4,3,6
42.492,2730131.188,-0.04277,-0.08794,9.88206,4,3,6
42.51,2730131.207,-0.03559,-0.08554,9.88206,4,3,6
42.529,2730131.226,-0.03559,-0.09272,9.88684,4,3,6
42.551,2730131.245,-0.04516,-0.08794,9.88684,4,3,6
42.568,2730131.264,-0.03799,-0.08554,9.88445,4,3,6
42.589,2730131.283,-0.04756,-0.08554,9.87249,4,3,6
42.608,2730131.302,-0.04516,-0.09033,9.87967,4,3,6
42.632,2730131.321,-0.04038,-0.09751,9.88445,4,3,6
42.649,2730131.34,-0.04516,-0.08554,9.87249,4,3,6
42.664,2730131.359,-0.03799,-0.10469,9.87009,4,3,6
42.682,2730131.378,-0.05474,-0.09272,9.88684,4,3,6
42.7,2730131.397,-0.04277,-0.0999,9.87488,4,3,6
42.725,2730131.416,-0.04516,-0.09033,9.87967,4,3,6
42.744,2730131.435,-0.03081,-0.08794,9.88445,4,3,6
42.758,2730131.454,-0.04756,-0.09751,9.87967,4,3,6
42.777,2730131.473,-0.04277,-0.08794,9.88684,4,3,6
42.8,2730131.492,-0.04277,-0.08794,9.87488,4,3,6
42.814,2730131.512,-0.03559,-0.09511,9.88684,4,3,6
42.839,2730131.531,-0.04516,-0.0999,9.87727,4,3,6
42.857,2730131.55,-0.04995,-0.09272,9.88206,4,3,6
42.874,2730131.569,-0.04038,-0.09511,9.87488,4,3,6
42.892,2730131.588,-0.05713,-0.09272,9.88684,4,3,6
42.91,2730131.607,-0.03799,-0.08794,9.87967,4,3,6
42.929,2730131.626,-0.04516,-0.07597,9.87488,4,3,6
42.95,2730131.645,-0.03799,-0.08794,9.88206,4,3,6
42.969,2730131.664,-0.04038,-0.08794,9.87488,4,3,6
42.988,2730131.683,-0.04995,-0.09511,9.88924,4,3,6
43.007,2730131.702,-0.04038,-0.08554,9.87009,4,3,6
43.029,2730131.721,-0.04516,-0.09033,9.89402,4,3,6
43.048,2730131.74,-0.04756,-0.09511,9.88445,4,3,6
43.067,2730131.759,-0.04277,-0.09272,9.88206,4,3,6
43.082,2730131.778,-0.0332,-0.0999,9.88445,4,3,6
43.102,2730131.797,-0.04995,-0.08794,9.89163,4,3,6
43.118,2730131.816,-0.04277,-0.08554,9.87727,4,3,6
43.138,2730131.835,-0.04516,-0.09751,9.88206,4,3,6
43.164,2730131.854,-0.04516,-0.08554,9.89163,4,3,6
43.176,2730131.873,-0.04516,-0.09751,9.87727,4,3,6
43.195,2730131.892,-0.04277,-0.09511,9.88924,4,3,6
43.215,2730131.911,-0.04516,-0.09751,9.88445,4,3,6
43.234,2730131.93,-0.04756,-0.09511,9.88924,4,3,6
43.255,2730131.949,-0.04277,-0.10229,9.88445,4,3,6
43.276,2730131.968,-0.04516,-0.0999,9.88206,4,3,6
43.291,2730131.987,-0.04038,-0.08076,9.88445,4,3,6
43.31,2730132.006,-0.04277,-0.09272,9.89163,4,3,6
43.327,2730132.025,-0.03559,-0.09272,9.87488,4,3,6
43.349,2730132.044,-0.04516,-0.09033,9.89163,4,3,6
43.369,2730132.063,-0.04516,-0.0999,9.88206,4,3,6
43.385,2730132.082,-0.04277,-0.07836,9.87967,4,3,6
43.407,2730132.101,-0.03559,-0.08794,9.88445,4,3,6
43.425,2730132.12,-0.04516,-0.08554,9.88445,4,3,6
43.448,2730132.139,-0.03799,-0.08794,9.88206,4,3,6
43.466,2730132.158,-0.04516,-0.09272,9.87967,4,3,6
43.485,2730132.177,-0.04516,-0.08794,9.88206,4,3,6
43.502,2730132.196,-0.04038,-0.08554,9.88206,4,3,6
43.521,2730132.215,-0.04038,-0.09751,9.88445,4,3,6
43.539,2730132.234,-0.04516,-0.10229,9.88206,4,3,6
43.558,2730132.253,-0.04756,-0.09272,9.87727,4,3,6
43.575,2730132.272,-0.03799,-0.09272,9.88445,4,3,6
43.598,2730132.291,-0.03559,-0.08794,9.88206,4,3,6
43.614,2730132.31,-0.04277,-0.09272,9.89163,4,3,6
43.632,2730132.329,-0.03799,-0.09272,9.88206,4,3,6
43.653,2730132.348,-0.03799,-0.09272,9.88445,4,3,6
43.672,2730132.367,-0.04277,-0.09511,9.87488,4,3,6
43.69,2730132.386,-0.03799,-0.07836,9.87967,4,3,6
43.708,2730132.405,-0.04038,-0.07597,9.87727,4,3,6
43.73,2730132.425,-0.04756,-0.09272,9.88684,4,3,6
43.748,2730132.444,-0.03559,-0.09511,9.87488,4,3,6
43.766,2730132.463,-0.05234,-0.08554,9.88445,4,3,6
43.784,2730132.482,-0.04277,-0.0999,9.87967,4,3,6
43.804,2730132.501,-0.03081,-0.09033,9.87488,4,3,6
43.826,2730132.52,-0.03799,-0.09511,9.87727,4,3,6
43.845,2730132.539,-0.04756,-0.08554,9.88206,4,3,6
43.864,2730132.558,-0.04516,-0.09033,9.88924,4,3,6
43.881,2730132.577,-0.04277,-0.09033,9.88445,4,3,6
43.902,2730132.596,-0.04038,-0.08315,9.88445,4,3,6
43.919,2730132.615,-0.04277,-0.09033,9.88924,4,3,6
43.938,2730132.634,-0.04516,-0.09272,9.88206,4,3,6
43.957,2730132.653,-0.04277,-0.08315,9.87967,4,3,6
43.976,2730132.672,-0.04038,-0.08554,9.88684,4,3,6
43.999,2730132.691,-0.04995,-0.08315,9.87009,4,3,6
44.013,2730132.71,-0.04756,-0.09751,9.88445,4,3,6
44.033,2730132.729,-0.04038,-0.09033,9.88445,4,3,6
44.052,2730132.748,-0.04277,-0.0999,9.87249,4,3,6
44.071,2730132.767,-0.04516,-0.08794,9.88206,4,3,6
44.09,2730132.786,-0.04516,-0.08315,9.88684,4,3,6
44.116,2730132.805,-0.04516,-0.0999,9.87488,4,3,6
44.126,2730132.824,-0.04516,-0.09511,9.89402,4,3,6
44.147,2730132.843,-0.04995,-0.09511,9.87249,4,3,6
44.166,2730132.862,-0.04756,-0.09751,9.88445,4,3,6
44.184,2730132.881,-0.04516,-0.10708,9.88206,4,3,6
44.205,2730132.9,-0.05234,-0.08794,9.88924,4,3,6
44.229,2730132.919,-0.0332,-0.09272,9.88206,4,3,6
44.242,2730132.938,-0.02841,-0.09751,9.88924,4,3,6
44.266,2730132.957,-0.04516,-0.09033,9.88206,4,3,6
44.285,2730132.976,-0.04038,-0.09751,9.88206,4,3,6
44.302,2730132.995,-0.04277,-0.09033,9.87727,4,3,6
44.318,2730133.014,-0.04756,-0.08794,9.88206,4,3,6
44.337,2730133.033,-0.04756,-0.09751,9.87967,4,3,6
44.359,2730133.052,-0.04277,-0.08315,9.88684,4,3,6
44.38,2730133.071,-0.05234,-0.09511,9.87488,4,3,6
44.394,2730133.09,-0.04516,-0.10708,9.89163,4,3,6
44.412,2730133.109,-0.05234,-0.09751,9.88924,4,3,6
44.432,2730133.128,-0.03799,-0.09272,9.87727,4,3,6
44.451,2730133.147,-0.03799,-0.09272,9.88445,4,3,6
44.471,2730133.166,-0.03799,-0.07836,9.88206,4,3,6
44.49,2730133.185,-0.03559,-0.08554,9.87488,4,3,6
44.506,2730133.204,-0.04756,-0.08794,9.89163,4,3,6
44.527,2730133.223,-0.04038,-0.07836,9.87727,4,3,6
44.549,2730133.242,-0.03559,-0.09511,9.88206,4,3,6
44.567,2730133.261,-0.03081,-0.09511,9.88206,4,3,6
44.583,2730133.28,-0.04277,-0.10469,9.88684,4,3,6
44.604,2730133.299,-0.04038,-0.08315,9.88445,4,3,6
44.625,2730133.319,-0.04277,-0.08554,9.87727,4,3,6
44.645,2730133.338,-0.04995,-0.08315,9.88924,4,3,6
44.661,2730133.357,-0.04038,-0.09751,9.87727,4,3,6
44.68,2730133.376,-0.03799,-0.0999,9.88445,4,3,6
44.701,2730133.395,-0.03081,-0.09033,9.87967,4,3,6
44.717,2730133.414,-0.04995,-0.08794,9.88206,4,3,6
44.739,2730133.433,-0.04516,-0.09272,9.87967,4,3,6
44.755,2730133.452,-0.04516,-0.08554,9.88684,4,3,6
44.774,2730133.471,-0.04277,-0.07597,9.87009,4,3,6
44.796,2730133.49,-0.03799,-0.08794,9.87488,4,3,6
44.812,2730133.509,-0.04038,-0.08315,9.87967,4,3,6
44.831,2730133.528,-0.04038,-0.0999,9.88924,4,3,6
44.852,2730133.547,-0.04756,-0.09272,9.87727,4,3,6
44.869,2730133.566,-0.04277,-0.09033,9.89163,4,3,6
44.888,2730133.585,-0.04277,-0.09272,9.88445,4,3,6
44.908,2730133.604,-0.05234,-0.10229,9.88445,4,3,6
44.932,2730133.623,-0.04516,-0.0999,9.88924,4,3,6
44.949,2730133.642,-0.04277,-0.10229,9.87249,4,3,6
44.965,2730133.661,-0.04038,-0.09751,9.88684,4,3,6
44.985,2730133.68,-0.04038,-0.09272,9.87727,4,3,6
45.002,2730133.699,-0.05474,-0.09272,9.87249,4,3,6
45.024,2730133.718,-0.04038,-0.09033,9.88206,4,3,6
45.045,2730133.737,-0.03559,-0.08554,9.88684,4,3,6
45.063,2730133.756,-0.04516,-0.09272,9.88684,4,3,6
45.081,2730133.775,-0.04277,-0.09033,9.88924,4,3,6
45.1,2730133.794,-0.04995,-0.09511,9.87727,4,3,6
45.118,2730133.813,-0.04516,-0.09511,9.88924,4,3,6
45.134,2730133.832,-0.03799,-0.09033,9.88445,4,3,6
45.168,2730133.851,-0.03559,-0.09511,9.86531,4,3,6
45.174,2730133.87,-0.04277,-0.09751,9.88924,4,3,6
45.192,2730133.889,-0.04756,-0.09272,9.87488,4,3,6
