AppTimestamp(s),SensorTimestamp(s),Acc_X,Acc_Y,Acc_Z,Label,Latitude,Longitude
0.088,611879.963,0.54588,-0.60394,10.46326,0,0,0.6
0.091,611879.983,0.73801,-0.55545,8.85376,0,0,0.6
0.092,611880.003,0.71886,-0.32082,8.5904,0,0,0.6
0.094,611880.024,0.55545,-0.17238,9.72585,0,0,0.6
0.096,611880.044,0.47405,-0.17238,9.83119,0,0,0.6
0.113,611880.064,0.49321,-0.22984,9.994,0,0,0.6
0.138,611880.084,0.60394,-0.33519,9.5774,0,0,0.6
0.142,611880.104,0.69492,-0.49321,9.07881,0,0,0.6
0.163,611880.124,0.65182,-0.58957,9.88386,0,0,0.6
0.183,611880.144,0.55067,-0.59436,10.87087,0,0,0.6
0.202,611880.164,0.50757,-0.52672,10.95706,0,0,0.6
0.222,611880.185,0.55067,-0.41659,10.25257,0,0,0.6
0.243,611880.205,0.62309,-0.26815,8.78672,0,0,0.6
0.267,611880.225,0.65661,-0.19632,8.3408,0,0,0.6
0.287,611880.245,0.60873,-0.24421,9.2895,0,0,0.6
0.309,611880.265,0.55067,-0.33998,10.22384,0,0,0.6
0.323,611880.285,0.5363,-0.4549,10.66976,0,0,0.6
0.344,611880.305,0.58957,-0.5363,10.09934,0,0,0.6
0.367,611880.325,0.63267,-0.54109,9.67317,0,0,0.6
0.384,611880.345,0.62309,-0.47884,9.76415,0,0,0.6
0.405,611880.366,0.58478,-0.39744,10.11371,0,0,0.6
0.424,611880.386,0.55545,-0.32082,10.00357,0,0,0.6
0.446,611880.406,0.56563,-0.26815,9.46189,0,0,0.6
0.464,611880.426,0.60873,-0.27294,9.16979,0,0,0.6
0.484,611880.446,0.6183,-0.33998,9.25598,0,0,0.6
0.505,611880.466,0.59915,-0.42617,9.99879,0,0,0.6
0.532,611880.486,0.56563,-0.48842,10.38665,0,0,0.6
0.545,611880.506,0.57042,-0.50757,10.39143,0,0,0.6
0.565,611880.527,0.58957,-0.48363,10.00836,0,0,0.6
0.585,611880.547,0.61351,-0.40701,9.56304,0,0,0.6
0.608,611880.567,0.60873,-0.33998,9.43794,0,0,0.6
0.625,611880.587,0.53151,-0.19632,8.7963,0,0,0.6
0.646,611880.607,0.59915,-0.39744,10.55903,0,0,0.6
0.666,611880.627,0.60873,-0.45969,9.67317,0,0,0.6
0.686,611880.647,0.58478,-0.49321,10.41059,0,0,0.6
0.709,611880.667,0.63746,-0.48363,9.50019,0,0,0.6
0.727,611880.688,0.63746,-0.49321,10.08976,0,0,0.6
0.748,611880.708,0.55067,-0.35913,9.78331,0,0,0.6
0.767,611880.728,0.58478,-0.34477,10.06582,0,0,0.6
0.787,611880.748,0.57042,-0.3304,9.46189,0,0,0.6
0.807,611880.768,0.60873,-0.31125,9.34218,0,0,0.6
0.826,611880.788,0.6183,-0.34955,9.41879,0,0,0.6
0.847,611880.808,0.59436,-0.39265,9.8695,0,0,0.6
0.867,611880.828,0.57042,-0.45011,10.29088,0,0,0.6
0.887,611880.848,0.56024,-0.48363,10.16638,0,0,0.6
0.91,611880.869,0.59436,-0.48842,10.05625,0,0,0.6
0.927,611880.889,0.60873,-0.40701,9.60135,0,0,0.6
0.95,611880.909,0.60394,-0.35434,9.59177,0,0,0.6
0.97,611880.929,0.59915,-0.30646,9.55825,0,0,0.6
0.99,611880.949,0.57042,-0.31125,9.74021,0,0,0.6
1.01,611880.969,0.58957,-0.36871,9.74021,0,0,0.6
1.03,611880.989,0.59436,-0.42617,9.83119,0,0,0.6
1.052,611881.009,0.59915,-0.4549,9.88386,0,0,0.6
1.068,611881.03,0.59915,-0.4549,10.02752,0,0,0.6
1.111,611881.05,0.58478,-0.43574,10.02273,0,0,0.6
1.117,611881.07,0.58478,-0.38307,9.84077,0,0,0.6
1.139,611881.09,0.58957,-0.35913,9.63008,0,0,0.6
1.148,611881.11,0.59436,-0.34955,9.51456,0,0,0.6
1.169,611881.13,0.59436,-0.35434,9.65402,0,0,0.6
1.191,611881.15,0.59436,-0.38307,9.81683,0,0,0.6
1.209,611881.17,0.59436,-0.40223,9.95569,0,0,0.6
1.229,611881.191,0.58957,-0.43096,9.92696,0,0,0.6
1.249,611881.211,0.58957,-0.44053,9.89344,0,0,0.6
1.269,611881.231,0.58957,-0.42617,9.84077,0,0,0.6
1.297,611881.251,0.58478,-0.38786,9.80725,0,0,0.6
1.31,611881.271,0.58478,-0.3735,9.73542,0,0,0.6
1.329,611881.291,0.59436,-0.34955,9.65881,0,0,0.6
1.352,611881.311,0.59915,-0.36392,9.68275,0,0,0.6
1.374,611881.331,0.59915,-0.39265,9.77373,0,0,0.6
1.392,611881.351,0.58,-0.42138,9.91259,0,0,0.6
1.41,611881.372,0.58957,-0.42617,9.94611,0,0,0.6
1.43,611881.392,0.59436,-0.42138,9.89823,0,0,0.6
1.453,611881.412,0.59436,-0.40223,9.7881,0,0,0.6
1.472,611881.432,0.59436,-0.38307,9.72585,0,0,0.6
1.599,611881.452,0.58957,-0.36871,9.71627,0,0,0.6
1.603,611881.472,0.58,-0.3735,9.74021,0,0,0.6
1.604,611881.492,0.58957,-0.38307,9.77852,0,0,0.6
1.609,611881.512,0.59915,-0.40223,9.80725,0,0,0.6
1.61,611881.533,0.59436,-0.4118,9.85513,0,0,0.6
1.616,611881.553,0.59436,-0.42138,9.87429,0,0,0.6
1.617,611881.573,0.58478,-0.4118,9.85513,0,0,0.6
1.632,611881.593,0.58478,-0.39744,9.80246,0,0,0.6
1.652,611881.613,0.58957,-0.37828,9.73063,0,0,0.6
1.672,611881.633,0.58957,-0.3735,9.72106,0,0,0.6
1.692,611881.653,0.59436,-0.38307,9.74979,0,0,0.6
1.716,611881.673,0.58957,-0.40223,9.80725,0,0,0.6
1.736,611881.694,0.58957,-0.40701,9.84556,0,0,0.6
1.756,611881.714,0.59436,-0.4118,9.84556,0,0,0.6
1.778,611881.734,0.59915,-0.4118,9.8264,0,0,0.6
1.797,611881.754,0.59436,-0.39744,9.80246,0,0,0.6
1.816,611881.774,0.59436,-0.39265,9.77373,0,0,0.6
1.836,611881.794,0.59436,-0.38786,9.75937,0,0,0.6
1.858,611881.814,0.58957,-0.38307,9.75458,0,0,0.6
1.873,611881.834,0.59436,-0.39744,9.76894,0,0,0.6
1.893,611881.854,0.59436,-0.39744,9.80725,0,0,0.6
1.913,611881.875,0.59436,-0.40701,9.84077,0,0,0.6
1.933,611881.895,0.59436,-0.40223,9.83119,0,0,0.6
1.954,611881.915,0.58957,-0.40701,9.81204,0,0,0.6
1.974,611881.935,0.59436,-0.39744,9.78331,0,0,0.6
1.994,611881.955,0.58957,-0.38786,9.77373,0,0,0.6
2.014,611881.975,0.59436,-0.38786,9.76894,0,0,0.6
2.038,611881.995,0.59436,-0.38786,9.78331,0,0,0.6
2.054,611882.015,0.58957,-0.39265,9.79288,0,0,0.6
2.088,611882.036,0.58957,-0.39744,9.81683,0,0,0.6
2.094,611882.056,0.58957,-0.40223,9.81683,0,0,0.6
2.115,611882.076,0.58957,-0.40701,9.82161,0,0,0.6
2.134,611882.096,0.58957,-0.39265,9.79288,0,0,0.6
2.155,611882.116,0.59436,-0.39265,9.77852,0,0,0.6
2.175,611882.136,0.59436,-0.38786,9.76415,0,0,0.6
2.196,611882.156,0.58478,-0.39265,9.78331,0,0,0.6
2.217,611882.176,0.58957,-0.39744,9.80246,0,0,0.6
2.236,611882.197,0.59436,-0.39744,9.81683,0,0,0.6
2.255,611882.217,0.59436,-0.39744,9.81683,0,0,0.6
2.275,611882.237,0.58957,-0.40223,9.80725,0,0,0.6
2.296,611882.257,0.58957,-0.40223,9.79767,0,0,0.6
2.315,611882.277,0.58957,-0.40223,9.78331,0,0,0.6
2.335,611882.297,0.59436,-0.39265,9.7881,0,0,0.6
2.356,611882.317,0.59915,-0.38786,9.77373,0,0,0.6
2.375,611882.337,0.58957,-0.38786,9.79288,0,0,0.6
2.396,611882.357,0.58957,-0.39265,9.79288,0,0,0.6
2.416,611882.378,0.58478,-0.40701,9.8264,0,0,0.6
2.435,611882.398,0.58478,-0.4118,9.79767,0,0,0.6
2.461,611882.418,0.59436,-0.39265,9.80725,0,0,0.6
2.476,611882.438,0.59436,-0.38307,9.77373,0,0,0.6
2.496,611882.458,0.59436,-0.38786,9.7881,0,0,0.6
2.516,611882.478,0.58957,-0.39265,9.7881,0,0,0.6
2.539,611882.498,0.58478,-0.39744,9.80246,0,0,0.6
2.558,611882.518,0.58957,-0.40223,9.80246,0,0,0.6
2.576,611882.539,0.59915,-0.40223,9.80246,0,0,0.6
2.597,611882.559,0.59915,-0.39265,9.80246,0,0,0.6
2.617,611882.579,0.58957,-0.39265,9.79288,0,0,0.6
2.639,611882.599,0.59436,-0.39265,9.79288,0,0,0.6
2.66,611882.619,0.58957,-0.39744,9.79288,0,0,0.6
2.679,611882.639,0.59436,-0.39744,9.79288,0,0,0.6
2.7,611882.659,0.59436,-0.39744,9.7881,0,0,0.6
2.723,611882.679,0.60394,-0.38786,9.79767,0,0,0.6
2.743,611882.7,0.58957,-0.39265,9.79767,0,0,0.6
2.764,611882.72,0.58957,-0.39744,9.80725,0,0,0.6
2.784,611882.74,0.58478,-0.40223,9.79288,0,0,0.6
2.805,611882.76,0.58957,-0.39265,9.79288,0,0,0.6
2.82,611882.78,0.58957,-0.39265,9.78331,0,0,0.6
2.846,611882.8,0.59436,-0.39265,9.79288,0,0,0.6
2.865,611882.82,0.58957,-0.39744,9.79288,0,0,0.6
2.882,611882.84,0.58478,-0.39744,9.79767,0,0,0.6
2.905,611882.861,0.58957,-0.39744,9.79767,0,0,0.6
2.924,611882.881,0.59436,-0.39744,9.80246,0,0,0.6
2.944,611882.901,0.59436,-0.39744,9.79767,0,0,0.6
2.96,611882.921,0.59436,-0.39744,9.79288,0,0,0.6
2.98,611882.941,0.59436,-0.39265,9.7881,0,0,0.6
3.0,611882.961,0.58478,-0.39265,9.79767,0,0,0.6
3.028,611882.981,0.58957,-0.39265,9.79767,0,0,0.6
3.044,611883.001,0.59436,-0.39265,9.79767,0,0,0.6
3.063,611883.021,0.59436,-0.39744,9.79767,0,0,0.6
3.084,611883.042,0.59436,-0.39265,9.7881,0,0,0.6
3.101,611883.062,0.58957,-0.39744,9.79767,0,0,0.6
3.121,611883.082,0.58478,-0.39265,9.7881,0,0,0.6
3.141,611883.102,0.58957,-0.39744,9.79288,0,0,0.6
3.16,611883.122,0.59436,-0.39744,9.7881,0,0,0.6
3.181,611883.142,0.58957,-0.39265,9.7881,0,0,0.6
3.203,611883.162,0.59436,-0.39265,9.79767,0,0,0.6
3.223,611883.182,0.58957,-0.39744,9.79288,0,0,0.6
3.241,611883.203,0.58957,-0.40223,9.80246,0,0,0.6
3.263,611883.223,0.58478,-0.39265,9.79288,0,0,0.6
3.288,611883.243,0.59436,-0.39265,9.79767,0,0,0.6
3.304,611883.263,0.59436,-0.39265,9.78331,0,0,0.6
3.322,611883.283,0.59915,-0.39265,9.7881,0,0,0.6
3.346,611883.303,0.59915,-0.39265,9.7881,0,0,0.6
3.363,611883.323,0.58478,-0.39744,9.79767,0,0,0.6
3.386,611883.343,0.58957,-0.39744,9.79288,0,0,0.6
3.403,611883.364,0.58957,-0.39265,9.79767,0,0,0.6
3.428,611883.384,0.58957,-0.39265,9.7881,0,0,0.6
3.446,611883.404,0.59436,-0.38786,9.79767,0,0,0.6
3.462,611883.424,0.59436,-0.39744,9.78331,0,0,0.6
3.483,611883.444,0.58957,-0.39744,9.79767,0,0,0.6
3.503,611883.464,0.58478,-0.39744,9.79767,0,0,0.6
3.523,611883.484,0.59436,-0.39265,9.79767,0,0,0.6
3.544,611883.504,0.58957,-0.38786,9.79288,0,0,0.6
3.565,611883.524,0.59436,-0.39265,9.7881,0,0,0.6
3.583,611883.545,0.58957,-0.39744,9.7881,0,0,0.6
3.607,611883.565,0.58957,-0.39744,9.79288,0,0,0.6
3.635,611883.585,0.59436,-0.40223,9.7881,0,0,0.6
3.643,611883.605,0.59436,-0.39265,9.79288,0,0,0.6
3.663,611883.625,0.58957,-0.38786,9.79288,0,0,0.6
3.685,611883.645,0.58957,-0.39744,9.79288,0,0,0.6
3.704,611883.665,0.58957,-0.39744,9.79767,0,0,0.6
3.725,611883.685,0.58957,-0.39744,9.79767,0,0,0.6
3.746,611883.706,0.59436,-0.39265,9.79767,0,0,0.6
3.767,611883.726,0.59436,-0.39265,9.79767,0,0,0.6
3.784,611883.746,0.58957,-0.39265,9.7881,0,0,0.6
3.804,611883.766,0.58957,-0.39744,9.79767,0,0,0.6
3.826,611883.786,0.58478,-0.39744,9.7881,0,0,0.6
3.844,611883.806,0.58957,-0.39744,9.79767,0,0,0.6
3.866,611883.826,0.58957,-0.39744,9.79288,0,0,0.6
3.886,611883.846,0.58957,-0.39265,9.7881,0,0,0.6
3.907,611883.867,0.59436,-0.39744,9.79288,0,0,0.6
3.926,611883.887,0.59436,-0.40223,9.79288,0,0,0.6
3.946,611883.907,0.58478,-0.39265,9.79288,0,0,0.6
3.968,611883.927,0.59436,-0.39744,9.79767,0,0,0.6
3.987,611883.947,0.58957,-0.39744,9.79767,0,0,0.6
4.005,611883.967,0.58957,-0.39265,9.79288,0,0,0.6
4.026,611883.987,0.58957,-0.40223,9.80246,0,0,0.6
4.047,611884.007,0.58957,-0.40223,9.79288,0,0,0.6
4.066,611884.027,0.59436,-0.39265,9.79288,0,0,0.6
4.086,611884.048,0.59915,-0.39744,9.80246,0,0,0.6
4.106,611884.068,0.59436,-0.39744,9.7881,0,0,0.6
4.127,611884.088,0.59436,-0.39744,9.79288,0,0,0.6
4.148,611884.108,0.58957,-0.39744,9.79288,0,0,0.6
4.168,611884.128,0.58957,-0.39744,9.79767,0,0,0.6
4.188,611884.148,0.58957,-0.39744,9.7881,0,0,0.6
4.207,611884.168,0.58957,-0.39744,9.79288,0,0,0.6
4.228,611884.188,0.59436,-0.39744,9.79288,0,0,0.6
4.249,611884.209,0.59436,-0.39265,9.79288,0,0,0.6
4.267,611884.229,0.59436,-0.39744,9.79288,0,0,0.6
4.289,611884.249,0.58957,-0.39744,9.79288,0,0,0.6
4.307,611884.269,0.58478,-0.39744,9.79288,0,0,0.6
4.329,611884.289,0.58957,-0.39265,9.79288,0,0,0.6
4.349,611884.309,0.59915,-0.39744,9.79767,0,0,0.6
4.367,611884.329,0.59436,-0.39744,9.79288,0,0,0.6
4.388,611884.349,0.59436,-0.39744,9.79767,0,0,0.6
4.408,611884.37,0.59436,-0.39744,9.79767,0,0,0.6
4.428,611884.39,0.58957,-0.39744,9.80246,0,0,0.6
4.448,611884.41,0.58957,-0.39744,9.79767,0,0,0.6
4.47,611884.43,0.58957,-0.39744,9.79288,0,0,0.6
4.489,611884.45,0.58957,-0.40223,9.80246,0,0,0.6
4.508,611884.47,0.59436,-0.39744,9.79288,0,0,0.6
4.53,611884.49,0.59436,-0.39744,9.79288,0,0,0.6
4.549,611884.51,0.58957,-0.39265,9.79288,0,0,0.6
4.571,611884.53,0.59436,-0.39265,9.79767,0,0,0.6
4.591,611884.551,0.59436,-0.39744,9.79288,0,0,0.6
4.609,611884.571,0.59436,-0.39265,9.79288,0,0,0.6
4.63,611884.591,0.58957,-0.39744,9.79767,0,0,0.6
4.649,611884.611,0.59436,-0.39744,9.7881,0,0,0.6
4.669,611884.631,0.59436,-0.39744,9.79767,0,0,0.6
4.69,611884.651,0.58957,-0.39744,9.79767,0,0,0.6
4.711,611884.671,0.58957,-0.38786,9.7881,0,0,0.6
4.73,611884.691,0.59436,-0.39744,9.79288,0,0,0.6
4.75,611884.712,0.59436,-0.39744,9.79767,0,0,0.6
4.776,611884.732,0.58957,-0.39744,9.79288,0,0,0.6
4.791,611884.752,0.58957,-0.39744,9.78331,0,0,0.6
4.81,611884.772,0.59915,-0.39744,9.79767,0,0,0.6
4.831,611884.792,0.58957,-0.39265,9.79288,0,0,0.6
4.85,611884.812,0.58957,-0.39265,9.79288,0,0,0.6
4.87,611884.832,0.59436,-0.39744,9.79288,0,0,0.6
4.891,611884.852,0.58957,-0.39744,9.79288,0,0,0.6
4.912,611884.873,0.59436,-0.39744,9.79288,0,0,0.6
4.935,611884.893,0.58478,-0.39265,9.7881,0,0,0.6
4.955,611884.913,0.59436,-0.40223,9.79288,0,0,0.6
4.975,611884.933,0.59436,-0.39744,9.79288,0,0,0.6
4.998,611884.953,0.58957,-0.39265,9.79288,0,0,0.6
5.016,611884.973,0.58957,-0.39265,9.79288,0,0,0.6
5.037,611884.993,0.59436,-0.39744,9.79767,0,0,0.6
5.056,611885.013,0.58957,-0.39744,9.7881,0,0,0.6
5.075,611885.033,0.59436,-0.39744,9.79288,0,0,0.6
5.099,611885.054,0.59436,-0.40223,9.79288,0,0,0.6
5.118,611885.074,0.58478,-0.39265,9.79288,0,0,0.6
5.136,611885.094,0.58957,-0.39265,9.79288,0,0,0.6
5.154,611885.114,0.59436,-0.39744,9.79288,0,0,0.6
5.176,611885.134,0.59436,-0.39744,9.79288,0,0,0.6
5.193,611885.154,0.58957,-0.39744,9.79288,0,0,0.6
5.213,611885.174,0.58478,-0.39265,9.80246,0,0,0.6
5.233,611885.194,0.58957,-0.39744,9.79767,0,0,0.6
5.261,611885.215,0.59915,-0.39265,9.79767,0,0,0.6
5.277,611885.235,0.59436,-0.39265,9.79288,0,0,0.6
5.301,611885.255,0.59436,-0.39744,9.79288,0,0,0.6
5.313,611885.275,0.58957,-0.39744,9.79288,0,0,0.6
5.336,611885.295,0.59436,-0.39744,9.79288,0,0,0.6
5.356,611885.315,0.59436,-0.39744,9.7881,0,0,0.6
5.379,611885.335,0.59436,-0.39744,9.79288,0,0,0.6
5.395,611885.355,0.59436,-0.39744,9.79288,0,0,0.6
5.417,611885.376,0.58957,-0.39265,9.79288,0,0,0.6
5.44,611885.396,0.58957,-0.39744,9.7881,0,0,0.6
5.459,611885.416,0.58957,-0.39744,9.79288,0,0,0.6
5.476,611885.436,0.58957,-0.40223,9.79288,0,0,0.6
5.494,611885.456,0.59436,-0.39265,9.79767,0,0,0.6
5.52,611885.476,0.58957,-0.39744,9.7881,0,0,0.6
5.535,611885.496,0.59436,-0.39744,9.7881,0,0,0.6
5.556,611885.516,0.59436,-0.40223,9.79767,0,0,0.6
5.576,611885.536,0.59436,-0.39744,9.7881,0,0,0.6
5.607,611885.557,0.59436,-0.39744,9.79288,0,0,0.6
5.614,611885.577,0.58957,-0.39265,9.79288,0,0,0.6
5.635,611885.597,0.59436,-0.39265,9.79288,0,0,0.6
5.656,611885.617,0.59436,-0.39265,9.79288,0,0,0.6
5.676,611885.637,0.59436,-0.39744,9.79288,0,0,0.6
5.695,611885.657,0.59436,-0.39744,9.7881,0,0,0.6
5.721,611885.677,0.59436,-0.39744,9.7881,0,0,0.6
5.737,611885.697,0.58957,-0.39265,9.79767,0,0,0.6
5.755,611885.718,0.59436,-0.39265,9.79288,0,0,0.6
5.776,611885.738,0.58957,-0.39265,9.79288,0,0,0.6
5.797,611885.758,0.59436,-0.39265,9.79288,0,0,0.6
5.817,611885.778,0.58957,-0.40223,9.79288,0,0,0.6
5.836,611885.798,0.58957,-0.39744,9.7881,0,0,0.6
5.858,611885.818,0.58957,-0.39265,9.79288,0,0,0.6
5.876,611885.838,0.58957,-0.39744,9.79288,0,0,0.6
5.897,611885.858,0.59436,-0.39744,9.7881,0,0,0.6
5.916,611885.879,0.59436,-0.39744,9.79288,0,0,0.6
5.937,611885.899,0.59436,-0.39744,9.7881,0,0,0.6
5.957,611885.919,0.58957,-0.39265,9.7881,0,0,0.6
5.977,611885.939,0.59436,-0.40223,9.7881,0,0,0.6
6.01,611885.959,0.59436,-0.39265,9.7881,0,0,0.6
6.017,611885.979,0.59436,-0.39265,9.7881,0,0,0.6
6.037,611885.999,0.59436,-0.39744,9.7881,0,0,0.6
6.058,611886.019,0.58957,-0.39744,9.78331,0,0,0.6
6.078,611886.04,0.58957,-0.38786,9.78331,0,0,0.6
6.098,611886.06,0.58957,-0.39744,9.7881,0,0,0.6
6.12,611886.08,0.58957,-0.39744,9.79288,0,0,0.6
6.14,611886.1,0.59436,-0.39265,9.7881,0,0,0.6
6.159,611886.12,0.59436,-0.38786,9.7881,0,0,0.6
6.181,611886.14,0.58957,-0.39744,9.7881,0,0,0.6
6.199,611886.16,0.59436,-0.39744,9.7881,0,0,0.6
6.219,611886.18,0.59436,-0.39265,9.79288,0,0,0.6
6.24,611886.2,0.58957,-0.39744,9.79288,0,0,0.6
6.26,611886.221,0.59436,-0.39744,9.7881,0,0,0.6
6.279,611886.241,0.59436,-0.39744,9.7881,0,0,0.6
6.307,611886.261,0.58957,-0.39265,9.78331,0,0,0.6
6.321,611886.281,0.59436,-0.39744,9.79288,0,0,0.6
6.341,611886.301,0.59436,-0.39744,9.7881,0,0,0.6
6.364,611886.321,0.58957,-0.39744,9.7881,0,0,0.6
6.385,611886.341,0.58957,-0.39265,9.78331,0,0,0.6
6.404,611886.361,0.59436,-0.39744,9.78331,0,0,0.6
6.426,611886.382,0.58957,-0.39744,9.7881,0,0,0.6
6.442,611886.402,0.59436,-0.39265,9.7881,0,0,0.6
6.461,611886.422,0.58957,-0.39265,9.79288,0,0,0.6
6.484,611886.442,0.58957,-0.39744,9.7881,0,0,0.6
6.504,611886.462,0.59436,-0.39744,9.79288,0,0,0.6
6.524,611886.482,0.58957,-0.39744,9.7881,0,0,0.6
6.544,611886.502,0.59436,-0.39744,9.7881,0,0,0.6
6.565,611886.522,0.59436,-0.40223,9.7881,0,0,0.6
6.584,611886.543,0.59436,-0.39265,9.7881,0,0,0.6
6.604,611886.563,0.58957,-0.39265,9.78331,0,0,0.6
6.622,611886.583,0.59436,-0.39744,9.7881,0,0,0.6
6.642,611886.603,0.59436,-0.39744,9.78331,0,0,0.6
6.661,611886.623,0.58957,-0.39744,9.78331,0,0,0.6
6.684,611886.643,0.59436,-0.39744,9.7881,0,0,0.6
6.702,611886.663,0.59436,-0.40223,9.79288,0,0,0.6
6.826,611886.683,0.58957,-0.39744,9.7881,0,0,0.6
6.827,611886.703,0.58957,-0.39265,9.78331,0,0,0.6
6.83,611886.724,0.59436,-0.39265,9.78331,0,0,0.6
6.831,611886.744,0.59436,-0.40223,9.78331,0,0,0.6
6.832,611886.764,0.58957,-0.39744,9.7881,0,0,0.6
6.834,611886.784,0.58957,-0.39744,9.78331,0,0,0.6
6.843,611886.804,0.59436,-0.40223,9.78331,0,0,0.6
6.863,611886.824,0.58957,-0.39744,9.78331,0,0,0.6
6.884,611886.844,0.59436,-0.39265,9.7881,0,0,0.6
6.904,611886.864,0.59436,-0.39265,9.78331,0,0,0.6
6.924,611886.885,0.59436,-0.40223,9.78331,0,0,0.6
6.945,611886.905,0.59436,-0.39265,9.78331,0,0,0.6
6.968,611886.925,0.59436,-0.39744,9.7881,0,0,0.6
6.99,611886.945,0.59915,-0.39744,9.78331,0,0,0.6
7.009,611886.965,0.58957,-0.39744,9.7881,0,0,0.6
7.024,611886.985,0.59436,-0.39744,9.78331,0,0,0.6
7.046,611887.005,0.58478,-0.39265,9.7881,0,0,0.6
7.066,611887.025,0.58957,-0.40223,9.77852,0,0,0.6
7.087,611887.046,0.58957,-0.40223,9.7881,0,0,0.6
7.106,611887.066,0.59436,-0.39265,9.7881,0,0,0.6
7.127,611887.086,0.59436,-0.39744,9.7881,0,0,0.6
7.149,611887.106,0.59915,-0.39744,9.78331,0,0,0.6
7.168,611887.126,0.59436,-0.39744,9.78331,0,0,0.6
7.188,611887.146,0.58957,-0.39744,9.7881,0,0,0.6
7.209,611887.166,0.58957,-0.39744,9.7881,0,0,0.6
7.229,611887.186,0.59436,-0.39744,9.7881,0,0,0.6
7.25,611887.206,0.58957,-0.39744,9.7881,0,0,0.6
7.271,611887.227,0.58957,-0.39744,9.79288,0,0,0.6
7.298,611887.247,0.58957,-0.39744,9.7881,0,0,0.6
7.318,611887.267,0.58957,-0.39744,9.78331,0,0,0.6
7.326,611887.287,0.58957,-0.39744,9.7881,0,0,0.6
7.35,611887.307,0.58957,-0.39744,9.78331,0,0,0.6
7.369,611887.327,0.59436,-0.39744,9.7881,0,0,0.6
7.39,611887.347,0.58957,-0.39744,9.78331,0,0,0.6
7.407,611887.367,0.59436,-0.39744,9.78331,0,0,0.6
7.428,611887.388,0.59436,-0.40223,9.78331,0,0,0.6
7.448,611887.408,0.59436,-0.39744,9.78331,0,0,0.6
7.468,611887.428,0.58957,-0.39265,9.78331,0,0,0.6
7.487,611887.448,0.59436,-0.39744,9.78331,0,0,0.6
7.508,611887.468,0.58957,-0.39744,9.7881,0,0,0.6
7.527,611887.488,0.59436,-0.39744,9.7881,0,0,0.6
7.549,611887.508,0.58957,-0.39265,9.7881,0,0,0.6
7.568,611887.528,0.59436,-0.39744,9.7881,0,0,0.6
7.593,611887.549,0.59436,-0.39265,9.7881,0,0,0.6
7.623,611887.569,0.59436,-0.39265,9.79767,0,0,0.6
7.628,611887.589,0.59436,-0.39744,9.78331,0,0,0.6
7.648,611887.609,0.59436,-0.40223,9.79288,0,0,0.6
7.668,611887.629,0.58957,-0.39744,9.79288,0,0,0.6
7.689,611887.649,0.58478,-0.39744,9.79288,0,0,0.6
7.708,611887.669,0.58957,-0.39265,9.79288,0,0,0.6
7.728,611887.689,0.58957,-0.39744,9.79288,0,0,0.6
7.748,611887.709,0.58957,-0.39265,9.79288,0,0,0.6
7.768,611887.73,0.59915,-0.39265,9.79767,0,0,0.6
7.791,611887.75,0.58957,-0.39744,9.79288,0,0,0.6
7.809,611887.77,0.59436,-0.39744,9.79767,0,0,0.6
7.831,611887.79,0.59436,-0.39265,9.79288,0,0,0.6
7.854,611887.81,0.59436,-0.39744,9.79288,0,0,0.6
7.87,611887.83,0.58957,-0.39744,9.7881,0,0,0.6
7.89,611887.85,0.59915,-0.40223,9.7881,0,0,0.6
7.911,611887.87,0.59436,-0.39744,9.79288,0,0,0.6
7.931,611887.891,0.59436,-0.39265,9.79288,0,0,0.6
7.95,611887.911,0.58957,-0.39744,9.79767,0,0,0.6
7.97,611887.931,0.58957,-0.40223,9.78331,0,0,0.6
7.991,611887.951,0.59436,-0.39265,9.79767,0,0,0.6
8.01,611887.971,0.58957,-0.39744,9.79767,0,0,0.6
8.03,611887.991,0.58957,-0.39744,9.79767,0,0,0.6
8.051,611888.011,0.59436,-0.39265,9.79288,0,0,0.6
8.071,611888.031,0.58957,-0.38786,9.79767,0,0,0.6
8.093,611888.052,0.59436,-0.39744,9.79288,0,0,0.6
8.114,611888.072,0.58957,-0.39744,9.80725,0,0,0.6
8.13,611888.092,0.58478,-0.40223,9.79767,0,0,0.6
8.151,611888.112,0.58957,-0.40701,9.80725,0,0,0.6
8.173,611888.132,0.59436,-0.39265,9.79767,0,0,0.6
8.192,611888.152,0.60394,-0.38786,9.79288,0,0,0.6
8.211,611888.172,0.59915,-0.39744,9.79767,0,0,0.6
8.231,611888.192,0.58957,-0.39744,9.79288,0,0,0.6
8.251,611888.213,0.58,-0.40223,9.80725,0,0,0.6
8.271,611888.233,0.58478,-0.40223,9.79767,0,0,0.6
8.292,611888.253,0.59436,-0.40223,9.81204,0,0,0.6
8.311,611888.273,0.59915,-0.39265,9.7881,0,0,0.6
8.332,611888.293,0.59436,-0.39265,9.79288,0,0,0.6
8.352,611888.313,0.58957,-0.39744,9.79767,0,0,0.6
8.372,611888.333,0.58478,-0.39744,9.80725,0,0,0.6
8.393,611888.353,0.58957,-0.39265,9.80246,0,0,0.6
8.414,611888.373,0.59436,-0.39744,9.80246,0,0,0.6
8.433,611888.394,0.59436,-0.39265,9.79767,0,0,0.6
8.454,611888.414,0.59436,-0.39265,9.80246,0,0,0.6
8.476,611888.434,0.58957,-0.39265,9.80725,0,0,0.6
8.497,611888.454,0.58478,-0.39265,9.80246,0,0,0.6
8.517,611888.474,0.58957,-0.40223,9.80725,0,0,0.6
8.538,611888.494,0.59915,-0.39265,9.78331,0,0,0.6
8.559,611888.514,0.59915,-0.38307,9.80725,0,0,0.6
8.577,611888.534,0.59436,-0.3735,9.79288,0,0,0.6
8.595,611888.555,0.58478,-0.38307,9.81204,0,0,0.6
8.619,611888.575,0.58957,-0.4118,9.80725,0,0,0.6
8.635,611888.595,0.58957,-0.40701,9.81204,0,0,0.6
8.656,611888.615,0.58478,-0.39265,9.79288,0,0,0.6
8.679,611888.635,0.59436,-0.39744,9.79767,0,0,0.6
8.694,611888.655,0.59915,-0.39265,9.79767,0,0,0.6
8.715,611888.675,0.58957,-0.39265,9.80725,0,0,0.6
8.735,611888.695,0.58957,-0.39744,9.80246,0,0,0.6
8.756,611888.716,0.58957,-0.40223,9.80725,0,0,0.6
8.777,611888.736,0.58957,-0.39744,9.80246,0,0,0.6
8.796,611888.756,0.59436,-0.39265,9.80246,0,0,0.6
8.817,611888.776,0.58957,-0.39744,9.79767,0,0,0.6
8.836,611888.796,0.59436,-0.40223,9.80246,0,0,0.6
8.862,611888.816,0.58478,-0.39265,9.80725,0,0,0.6
8.879,611888.836,0.59436,-0.39265,9.80246,0,0,0.6
8.898,611888.856,0.59436,-0.39265,9.79767,0,0,0.6
8.917,611888.876,0.58957,-0.39265,9.80246,0,0,0.6
8.943,611888.897,0.58957,-0.39744,9.80725,0,0,0.6
8.96,611888.917,0.58957,-0.39744,9.81204,0,0,0.6
8.983,611888.937,0.59436,-0.40223,9.80725,0,0,0.6
9.0,611888.957,0.58957,-0.39744,9.80725,0,0,0.6
9.02,611888.977,0.59436,-0.39265,9.79767,0,0,0.6
9.037,611888.997,0.59915,-0.40223,9.81204,0,0,0.6
9.059,611889.017,0.58478,-0.38786,9.80725,0,0,0.6
9.08,611889.037,0.58957,-0.38307,9.80246,0,0,0.6
9.104,611889.058,0.59436,-0.40223,9.80725,0,0,0.6
9.12,611889.078,0.58957,-0.40223,9.79767,0,0,0.6
9.137,611889.098,0.58478,-0.39265,9.80725,0,0,0.6
9.16,611889.118,0.58957,-0.39265,9.80246,0,0,0.6
9.179,611889.138,0.58957,-0.39744,9.80725,0,0,0.6
9.201,611889.158,0.59915,-0.39265,9.80246,0,0,0.6
9.219,611889.178,0.59436,-0.39744,9.80246,0,0,0.6
9.242,611889.198,0.59915,-0.39265,9.80246,0,0,0.6
9.262,611889.219,0.58,-0.40223,9.80725,0,0,0.6
9.279,611889.239,0.58957,-0.39265,9.81204,0,0,0.6
9.302,611889.259,0.58957,-0.39265,9.80725,0,0,0.6
9.32,611889.279,0.59436,-0.39744,9.80246,0,0,0.6
9.339,611889.299,0.59436,-0.39744,9.80246,0,0,0.6
9.362,611889.319,0.59436,-0.39265,9.80246,0,0,0.6
9.383,611889.339,0.58957,-0.39744,9.81204,0,0,0.6
9.404,611889.359,0.58478,-0.39744,9.81204,0,0,0.6
9.422,611889.379,0.58957,-0.39265,9.81683,0,0,0.6
9.441,611889.4,0.58957,-0.39265,9.80725,0,0,0.6
9.462,611889.42,0.59915,-0.39744,9.80725,0,0,0.6
9.48,611889.44,0.59436,-0.40223,9.80246,0,0,0.6
9.502,611889.46,0.58478,-0.40223,9.81204,0,0,0.6
9.526,611889.48,0.58478,-0.39265,9.81683,0,0,0.6
9.542,611889.5,0.59436,-0.39265,9.81683,0,0,0.6
9.562,611889.52,0.59915,-0.39744,9.80725,0,0,0.6
9.589,611889.54,0.59436,-0.39744,9.81204,0,0,0.6
9.605,611889.561,0.58957,-0.39265,9.80246,0,0,0.6
9.65,611889.581,0.59436,-0.39744,9.81683,0,0,0.6
9.653,611889.601,0.58957,-0.39744,9.80725,0,0,0.6
9.665,611889.621,0.59436,-0.39744,9.81204,0,0,0.6
9.682,611889.641,0.59436,-0.39265,9.80246,0,0,0.6
9.705,611889.661,0.59915,-0.39744,9.81204,0,0,0.6
9.727,611889.681,0.59436,-0.39744,9.80725,0,0,0.6
9.745,611889.701,0.58957,-0.39744,9.81204,0,0,0.6
9.763,611889.722,0.58957,-0.39744,9.81204,0,0,0.6
9.787,611889.742,0.58478,-0.39744,9.81204,0,0,0.6
9.804,611889.762,0.58957,-0.40223,9.81204,0,0,0.6
9.825,611889.782,0.59436,-0.39265,9.80725,0,0,0.6
9.844,611889.802,0.58957,-0.39265,9.80725,0,0,0.6
9.864,611889.822,0.59436,-0.39744,9.81204,0,0,0.6
9.883,611889.842,0.58957,-0.39744,9.81683,0,0,0.6
9.905,611889.862,0.59436,-0.39744,9.81204,0,0,0.6
9.925,611889.883,0.59436,-0.39744,9.81683,0,0,0.6
9.946,611889.903,0.59436,-0.39265,9.80725,0,0,0.6
9.966,611889.923,0.58957,-0.39744,9.81683,0,0,0.6
9.983,611889.943,0.59436,-0.39744,9.81204,0,0,0.6
10.005,611889.963,0.59436,-0.39744,9.81683,0,0,0.6
10.023,611889.983,0.58957,-0.38786,9.81204,0,0,0.6
10.046,611890.003,0.58957,-0.39744,9.81204,0,0,0.6
10.064,611890.023,0.59915,-0.40223,9.81683,0,0,0.6
10.083,611890.043,0.59436,-0.39744,9.81204,0,0,0.6
10.107,611890.064,0.58957,-0.39265,9.81204,0,0,0.6
10.124,611890.084,0.58957,-0.39744,9.81204,0,0,0.6
10.145,611890.104,0.58957,-0.39744,9.81204,0,0,0.6
10.166,611890.124,0.58957,-0.39744,9.81204,0,0,0.6
10.183,611890.144,0.59436,-0.39744,9.81204,0,0,0.6
10.204,611890.164,0.58957,-0.40223,9.81683,0,0,0.6
10.227,611890.184,0.59436,-0.39265,9.80246,0,0,0.6
10.249,611890.204,0.58957,-0.39744,9.81204,0,0,0.6
10.267,611890.225,0.59436,-0.40223,9.81683,0,0,0.6
10.292,611890.245,0.58957,-0.39744,9.82161,0,0,0.6
10.305,611890.265,0.59436,-0.39744,9.81204,0,0,0.6
10.324,611890.285,0.58957,-0.39744,9.81683,0,0,0.6
10.348,611890.305,0.58957,-0.40223,9.81683,0,0,0.6
10.368,611890.325,0.58957,-0.39744,9.81204,0,0,0.6
10.39,611890.345,0.59436,-0.39744,9.81683,0,0,0.6
10.409,611890.365,0.58957,-0.39744,9.81683,0,0,0.6
10.428,611890.386,0.58957,-0.39744,9.81204,0,0,0.6
10.449,611890.406,0.58478,-0.40223,9.81683,0,0,0.6
10.468,611890.426,0.59436,-0.39744,9.81204,0,0,0.6
10.487,611890.446,0.58478,-0.39744,9.82161,0,0,0.6
10.507,611890.466,0.58957,-0.40223,9.81683,0,0,0.6
10.526,611890.486,0.59436,-0.40223,9.81683,0,0,0.6
10.549,611890.506,0.59436,-0.39744,9.82161,0,0,0.6
10.569,611890.526,0.59436,-0.40223,9.81204,0,0,0.6
10.588,611890.546,0.58957,-0.39265,9.81204,0,0,0.6
10.607,611890.567,0.58957,-0.39265,9.81683,0,0,0.6
10.627,611890.587,0.59436,-0.39265,9.82161,0,0,0.6
10.647,611890.607,0.58957,-0.40223,9.81683,0,0,0.6
10.667,611890.627,0.58478,-0.39744,9.81683,0,0,0.6
10.687,611890.647,0.58957,-0.39744,9.81683,0,0,0.6
10.708,611890.667,0.59436,-0.40223,9.81683,0,0,0.6
10.727,611890.687,0.59436,-0.39744,9.81204,0,0,0.6
10.748,611890.707,0.58957,-0.39744,9.81683,0,0,0.6
10.77,611890.728,0.59436,-0.39265,9.81683,0,0,0.6
10.79,611890.748,0.59436,-0.39744,9.82161,0,0,0.6
10.809,611890.768,0.58957,-0.39265,9.81683,0,0,0.6
10.831,611890.788,0.58478,-0.39744,9.82161,0,0,0.6
10.85,611890.808,0.58957,-0.39744,9.81683,0,0,0.6
10.87,611890.828,0.59436,-0.40223,9.81683,0,0,0.6
10.891,611890.848,0.58478,-0.39265,9.81683,0,0,0.6
10.909,611890.868,0.58957,-0.39744,9.82161,0,0,0.6
10.927,611890.889,0.58478,-0.40223,9.82161,0,0,0.6
10.951,611890.909,0.58957,-0.39744,9.8264,0,0,0.6
10.971,611890.929,0.58478,-0.39265,9.81683,0,0,0.6
10.992,611890.949,0.58957,-0.40223,9.8264,0,0,0.6
11.015,611890.969,0.58957,-0.39744,9.8264,0,0,0.6
11.031,611890.989,0.58957,-0.39265,9.82161,0,0,0.6
11.055,611891.009,0.58957,-0.39744,9.82161,0,0,0.6
11.072,611891.029,0.58957,-0.39744,9.82161,0,0,0.6
11.09,611891.049,0.58957,-0.39744,9.81683,0,0,0.6
11.119,611891.07,0.58957,-0.39265,9.83119,0,0,0.6
11.13,611891.09,0.59436,-0.39744,9.81683,0,0,0.6
11.152,611891.11,0.59436,-0.39265,9.82161,0,0,0.6
11.174,611891.13,0.58957,-0.39265,9.82161,0,0,0.6
11.193,611891.15,0.58478,-0.39265,9.82161,0,0,0.6
11.211,611891.17,0.59436,-0.39744,9.82161,0,0,0.6
11.234,611891.19,0.59436,-0.39744,9.8264,0,0,0.6
11.256,611891.21,0.59436,-0.39744,9.82161,0,0,0.6
11.273,611891.231,0.59436,-0.39265,9.8264,0,0,0.6
11.292,611891.251,0.58957,-0.39744,9.83119,0,0,0.6
11.318,611891.271,0.58957,-0.39744,9.82161,0,0,0.6
11.331,611891.291,0.58957,-0.39744,9.82161,0,0,0.6
11.356,611891.311,0.58957,-0.39265,9.81204,0,0,0.6
11.375,611891.331,0.58957,-0.40223,9.82161,0,0,0.6
11.394,611891.351,0.58957,-0.39744,9.81683,0,0,0.6
11.415,611891.371,0.58957,-0.39744,9.83119,0,0,0.6
11.434,611891.392,0.59436,-0.39265,9.82161,0,0,0.6
11.456,611891.412,0.58957,-0.39744,9.8264,0,0,0.6
11.476,611891.432,0.58957,-0.39744,9.8264,0,0,0.6
11.493,611891.452,0.59436,-0.39744,9.8264,0,0,0.6
11.511,611891.472,0.58957,-0.40223,9.8264,0,0,0.6
11.532,611891.492,0.58957,-0.39265,9.8264,0,0,0.6
11.551,611891.512,0.58957,-0.39744,9.82161,0,0,0.6
11.577,611891.532,0.58957,-0.39744,9.8264,0,0,0.6
11.599,611891.553,0.59436,-0.39265,9.82161,0,0,0.6
11.639,611891.573,0.58957,-0.39744,9.82161,0,0,0.6
11.643,611891.593,0.59436,-0.39265,9.82161,0,0,0.6
11.656,611891.613,0.58957,-0.39744,9.82161,0,0,0.6
11.672,611891.633,0.59436,-0.39744,9.82161,0,0,0.6
11.695,611891.653,0.59436,-0.39744,9.83119,0,0,0.6
11.714,611891.673,0.59436,-0.39265,9.8264,0,0,0.6
11.734,611891.693,0.59436,-0.39744,9.82161,0,0,0.6
11.754,611891.713,0.58957,-0.39744,9.82161,0,0,0.6
11.779,611891.734,0.59436,-0.39744,9.82161,0,0,0.6
11.796,611891.754,0.58957,-0.39265,9.83119,0,0,0.6
11.82,611891.774,0.59436,-0.39744,9.82161,0,0,0.6
11.838,611891.794,0.59436,-0.39744,9.83598,0,0,0.6
11.857,611891.814,0.58478,-0.39265,9.82161,0,0,0.6
11.878,611891.834,0.58478,-0.39265,9.8264,0,0,0.6
11.899,611891.854,0.59436,-0.39744,9.82161,0,0,0.6
11.917,611891.874,0.58957,-0.39265,9.8264,0,0,0.6
11.937,611891.895,0.58478,-0.39265,9.8264,0,0,0.6
11.957,611891.915,0.59436,-0.39744,9.83119,0,0,0.6
11.979,611891.935,0.58957,-0.39265,9.8264,0,0,0.6
11.999,611891.955,0.58957,-0.39265,9.8264,0,0,0.6
12.02,611891.975,0.59436,-0.39265,9.8264,0,0,0.6
12.04,611891.995,0.59436,-0.39744,9.8264,0,0,0.6
12.059,611892.015,0.58957,-0.39744,9.8264,0,0,0.6
12.078,611892.035,0.58957,-0.39265,9.83119,0,0,0.6
12.1,611892.056,0.59436,-0.39744,9.83119,0,0,0.6
12.118,611892.076,0.58957,-0.40223,9.83119,0,0,0.6
12.143,611892.096,0.58957,-0.39265,9.8264,0,0,0.6
12.159,611892.116,0.58957,-0.39265,9.8264,0,0,0.6
12.179,611892.136,0.59436,-0.39744,9.8264,0,0,0.6
12.197,611892.156,0.58478,-0.39744,9.8264,0,0,0.6
12.216,611892.176,0.58478,-0.39744,9.83119,0,0,0.6
12.242,611892.196,0.58957,-0.39744,9.83119,0,0,0.6
12.26,611892.216,0.58478,-0.39744,9.82161,0,0,0.6
12.28,611892.237,0.58957,-0.39265,9.83598,0,0,0.6
12.299,611892.257,0.58957,-0.38786,9.8264,0,0,0.6
12.322,611892.277,0.58957,-0.39744,9.8264,0,0,0.6
12.337,611892.297,0.58957,-0.39744,9.8264,0,0,0.6
12.359,611892.317,0.58957,-0.39744,9.8264,0,0,0.6
12.377,611892.337,0.58957,-0.39744,9.8264,0,0,0.6
12.398,611892.357,0.59436,-0.40223,9.83119,0,0,0.6
12.42,611892.377,0.58957,-0.39744,9.8264,0,0,0.6
12.44,611892.398,0.58478,-0.39744,9.8264,0,0,0.6
12.462,611892.418,0.58957,-0.39744,9.83119,0,0,0.6
12.478,611892.438,0.59436,-0.40223,9.8264,0,0,0.6
12.498,611892.458,0.58478,-0.39744,9.83119,0,0,0.6
12.521,611892.478,0.58478,-0.39265,9.83119,0,0,0.6
12.543,611892.498,0.58957,-0.39744,9.83119,0,0,0.6
12.562,611892.518,0.59436,-0.39265,9.8264,0,0,0.6
12.58,611892.538,0.58478,-0.39744,9.83598,0,0,0.6
12.604,611892.559,0.58957,-0.39265,9.8264,0,0,0.6
12.622,611892.579,0.58957,-0.40223,9.8264,0,0,0.6
12.64,611892.599,0.58957,-0.39744,9.8264,0,0,0.6
12.66,611892.619,0.59436,-0.39265,9.83119,0,0,0.6
12.68,611892.639,0.58957,-0.39265,9.8264,0,0,0.6
12.701,611892.659,0.58478,-0.40223,9.83119,0,0,0.6
12.725,611892.679,0.58957,-0.39265,9.8264,0,0,0.6
12.746,611892.699,0.58957,-0.39744,9.8264,0,0,0.6
12.759,611892.719,0.59436,-0.40223,9.8264,0,0,0.6
12.78,611892.74,0.58957,-0.39744,9.83119,0,0,0.6
12.803,611892.76,0.58478,-0.39265,9.8264,0,0,0.6
12.824,611892.78,0.58957,-0.39744,9.83598,0,0,0.6
12.844,611892.8,0.58957,-0.39265,9.8264,0,0,0.6
12.865,611892.82,0.58957,-0.39265,9.83119,0,0,0.6
12.885,611892.84,0.58957,-0.39265,9.83119,0,0,0.6
12.906,611892.86,0.59436,-0.39265,9.8264,0,0,0.6
12.925,611892.88,0.59436,-0.39265,9.8264,0,0,0.6
12.944,611892.901,0.58957,-0.39744,9.83119,0,0,0.6
12.966,611892.921,0.59436,-0.39744,9.83598,0,0,0.6
12.985,611892.941,0.58957,-0.39744,9.8264,0,0,0.6
13.005,611892.961,0.58957,-0.39744,9.83119,0,0,0.6
13.026,611892.981,0.58957,-0.39744,9.83119,0,0,0.6
13.047,611893.001,0.58957,-0.39744,9.83119,0,0,0.6
13.065,611893.021,0.59436,-0.39744,9.83119,0,0,0.6
13.086,611893.041,0.58957,-0.40223,9.83119,0,0,0.6
13.106,611893.062,0.58957,-0.39744,9.8264,0,0,0.6
13.124,611893.082,0.58957,-0.39744,9.83598,0,0,0.6
13.142,611893.102,0.58957,-0.39265,9.8264,0,0,0.6
13.167,611893.122,0.58957,-0.40223,9.83119,0,0,0.6
13.184,611893.142,0.59436,-0.39744,9.83598,0,0,0.6
13.205,611893.162,0.59436,-0.39265,9.8264,0,0,0.6
13.222,611893.182,0.58957,-0.39744,9.83119,0,0,0.6
13.244,611893.202,0.58957,-0.39744,9.83119,0,0,0.6
13.263,611893.223,0.58478,-0.39265,9.83598,0,0,0.6
13.283,611893.243,0.58957,-0.39744,9.83598,0,0,0.6
13.312,611893.263,0.58957,-0.39744,9.8264,0,0,0.6
13.322,611893.283,0.58478,-0.39744,9.83119,0,0,0.6
13.345,611893.303,0.58478,-0.39744,9.8264,0,0,0.6
13.366,611893.323,0.58,-0.39265,9.83119,0,0,0.6
13.386,611893.343,0.58478,-0.39744,9.83598,0,0,0.6
13.406,611893.363,0.58,-0.40223,9.8264,0,0,0.6
13.425,611893.383,0.59436,-0.39744,9.83598,0,0,0.6
13.446,611893.404,0.58957,-0.39265,9.8264,0,0,0.6
13.467,611893.424,0.58478,-0.38786,9.83119,0,0,0.6
13.486,611893.444,0.58957,-0.39744,9.81683,0,0,0.6
13.506,611893.464,0.59436,-0.40701,9.84077,0,0,0.6
13.529,611893.484,0.60394,-0.40701,9.81204,0,0,0.6
13.546,611893.504,0.59915,-0.40701,9.85034,0,0,0.6
13.566,611893.524,0.58478,-0.38786,9.81204,0,0,0.6
13.587,611893.544,0.57521,-0.38786,9.84077,0,0,0.6
13.643,611893.565,0.58,-0.39744,9.8264,0,0,0.6
13.644,611893.585,0.59436,-0.39744,9.83598,0,0,0.6
13.649,611893.605,0.60873,-0.40223,9.82161,0,0,0.6
13.666,611893.625,0.59915,-0.40223,9.82161,0,0,0.6
13.684,611893.645,0.58957,-0.39744,9.83119,0,0,0.6
13.704,611893.665,0.58,-0.39265,9.83598,0,0,0.6
13.725,611893.685,0.58,-0.39265,9.83598,0,0,0.6
13.746,611893.705,0.58957,-0.39265,9.83119,0,0,0.6
13.767,611893.726,0.59915,-0.40223,9.8264,0,0,0.6
13.786,611893.746,0.59436,-0.40223,9.8264,0,0,0.6
13.809,611893.766,0.59436,-0.39265,9.8264,0,0,0.6
13.826,611893.786,0.58478,-0.39265,9.8264,0,0,0.6
13.845,611893.806,0.58,-0.39265,9.83598,0,0,0.6
13.866,611893.826,0.58478,-0.39744,9.8264,0,0,0.6
13.884,611893.846,0.59436,-0.40223,9.83119,0,0,0.6
13.905,611893.866,0.59915,-0.39744,9.83598,0,0,0.6
13.925,611893.886,0.58957,-0.39265,9.83119,0,0,0.6
13.946,611893.907,0.58957,-0.39744,9.82161,0,0,0.6
13.965,611893.927,0.57521,-0.38786,9.84077,0,0,0.6
13.985,611893.947,0.58,-0.39744,9.84077,0,0,0.6
14.007,611893.967,0.58478,-0.40223,9.83598,0,0,0.6
14.027,611893.987,0.59436,-0.39744,9.84077,0,0,0.6
14.048,611894.007,0.59915,-0.39744,9.82161,0,0,0.6
14.067,611894.027,0.60394,-0.39265,9.83598,0,0,0.6
14.087,611894.047,0.59436,-0.39265,9.81204,0,0,0.6
14.107,611894.068,0.58478,-0.40223,9.84077,0,0,0.6
14.126,611894.088,0.58478,-0.39265,9.8264,0,0,0.6
14.149,611894.108,0.58478,-0.39265,9.84077,0,0,0.6
14.168,611894.128,0.58957,-0.39744,9.8264,0,0,0.6
14.189,611894.148,0.59915,-0.38786,9.83598,0,0,0.6
14.211,611894.168,0.59915,-0.39744,9.82161,0,0,0.6
14.227,611894.188,0.58478,-0.40223,9.83119,0,0,0.6
14.25,611894.208,0.58957,-0.39744,9.83119,0,0,0.6
14.269,611894.229,0.58478,-0.39744,9.83119,0,0,0.6
14.289,611894.249,0.58957,-0.39265,9.83598,0,0,0.6
14.307,611894.269,0.59915,-0.39744,9.8264,0,0,0.6
14.327,611894.289,0.59436,-0.40223,9.8264,0,0,0.6
14.347,611894.309,0.58957,-0.39265,9.83119,0,0,0.6
14.368,611894.329,0.58957,-0.39744,9.83598,0,0,0.6
14.389,611894.349,0.58957,-0.39744,9.83119,0,0,0.6
14.408,611894.369,0.58957,-0.39265,9.83119,0,0,0.6
14.432,611894.389,0.58957,-0.39744,9.83119,0,0,0.6
14.45,611894.41,0.59436,-0.39265,9.83119,0,0,0.6
14.47,611894.43,0.58957,-0.39744,9.83119,0,0,0.6
14.489,611894.45,0.58957,-0.39744,9.83598,0,0,0.6
14.51,611894.47,0.58957,-0.39265,9.8264,0,0,0.6
14.531,611894.49,0.58957,-0.39744,9.83119,0,0,0.6
14.551,611894.51,0.59436,-0.39744,9.82161,0,0,0.6
14.57,611894.53,0.59436,-0.39744,9.83598,0,0,0.6
14.591,611894.55,0.59436,-0.39744,9.8264,0,0,0.6
14.609,611894.571,0.58478,-0.39744,9.83598,0,0,0.6
14.63,611894.591,0.58957,-0.39265,9.82161,0,0,0.6
14.65,611894.611,0.58478,-0.39265,9.82161,0,0,0.6
14.669,611894.631,0.58957,-0.39744,9.8264,0,0,0.6
14.693,611894.651,0.59436,-0.39265,9.8264,0,0,0.6
14.714,611894.671,0.58957,-0.39265,9.8264,0,0,0.6
14.73,611894.691,0.58478,-0.39744,9.8264,0,0,0.6
14.75,611894.711,0.59436,-0.39744,9.83119,0,0,0.6
14.772,611894.732,0.58957,-0.39744,9.8264,0,0,0.6
14.79,611894.752,0.59436,-0.39265,9.82161,0,0,0.6
14.811,611894.772,0.59436,-0.40223,9.8264,0,0,0.6
14.83,611894.792,0.58957,-0.39744,9.8264,0,0,0.6
14.851,611894.812,0.58957,-0.39744,9.8264,0,0,0.6
14.871,611894.832,0.59436,-0.39265,9.8264,0,0,0.6
14.894,611894.852,0.58478,-0.39265,9.82161,0,0,0.6
14.914,611894.872,0.58957,-0.39265,9.8264,0,0,0.6
14.933,611894.893,0.59436,-0.40223,9.8264,0,0,0.6
14.955,611894.913,0.58957,-0.40223,9.8264,0,0,0.6
14.971,611894.933,0.58957,-0.39265,9.82161,0,0,0.6
14.996,611894.953,0.59436,-0.39265,9.8264,0,0,0.6
15.015,611894.973,0.58957,-0.38786,9.8264,0,0,0.6
15.035,611894.993,0.58478,-0.39744,9.8264,0,0,0.6
15.056,611895.013,0.59436,-0.39744,9.82161,0,0,0.6
15.074,611895.033,0.59436,-0.39744,9.8264,0,0,0.6
15.095,611895.053,0.58478,-0.39265,9.82161,0,0,0.6
15.121,611895.074,0.58957,-0.40223,9.81683,0,0,0.6
15.136,611895.094,0.58957,-0.39744,9.83119,0,0,0.6
15.154,611895.114,0.58957,-0.39265,9.82161,0,0,0.6
15.176,611895.134,0.59436,-0.39265,9.8264,0,0,0.6
15.194,611895.154,0.59436,-0.39744,9.82161,0,0,0.6
15.216,611895.174,0.58957,-0.39744,9.81683,0,0,0.6
15.236,611895.194,0.59436,-0.39744,9.82161,0,0,0.6
15.257,611895.214,0.58957,-0.39265,9.8264,0,0,0.6
15.278,611895.235,0.58957,-0.39265,9.8264,0,0,0.6
15.296,611895.255,0.58957,-0.39744,9.8264,0,0,0.6
15.315,611895.275,0.59436,-0.39265,9.8264,0,0,0.6
15.338,611895.295,0.58957,-0.39744,9.81683,0,0,0.6
15.358,611895.315,0.59436,-0.39265,9.82161,0,0,0.6
15.376,611895.335,0.58957,-0.39744,9.81683,0,0,0.6
15.396,611895.355,0.59436,-0.39744,9.8264,0,0,0.6
15.417,611895.375,0.58478,-0.39744,9.81683,0,0,0.6
15.436,611895.396,0.58957,-0.39744,9.8264,0,0,0.6
15.457,611895.416,0.58957,-0.39744,9.8264,0,0,0.6
15.478,611895.436,0.58957,-0.39265,9.8264,0,0,0.6
15.499,611895.456,0.58957,-0.39744,9.82161,0,0,0.6
15.517,611895.476,0.59436,-0.39744,9.82161,0,0,0.6
15.537,611895.496,0.58957,-0.39265,9.82161,0,0,0.6
15.557,611895.516,0.58957,-0.39744,9.81204,0,0,0.6
15.578,611895.536,0.59436,-0.39744,9.81204,0,0,0.6
15.625,611895.556,0.59436,-0.39744,9.82161,0,0,0.6
15.627,611895.577,0.58957,-0.39265,9.82161,0,0,0.6
15.636,611895.597,0.58478,-0.39265,9.82161,0,0,0.6
15.655,611895.617,0.59436,-0.39265,9.8264,0,0,0.6
15.675,611895.637,0.59436,-0.39744,9.82161,0,0,0.6
15.695,611895.657,0.58957,-0.39744,9.8264,0,0,0.6
15.719,611895.677,0.58957,-0.40223,9.81204,0,0,0.6
15.739,611895.697,0.59436,-0.39744,9.8264,0,0,0.6
15.758,611895.717,0.59436,-0.39265,9.81683,0,0,0.6
15.777,611895.738,0.59436,-0.39744,9.8264,0,0,0.6
15.798,611895.758,0.59436,-0.39744,9.82161,0,0,0.6
15.819,611895.778,0.58478,-0.39744,9.82161,0,0,0.6
15.837,611895.798,0.58957,-0.39744,9.8264,0,0,0.6
15.859,611895.818,0.58478,-0.39265,9.82161,0,0,0.6
15.879,611895.838,0.58957,-0.39744,9.81683,0,0,0.6
15.899,611895.858,0.58957,-0.39265,9.82161,0,0,0.6
15.917,611895.878,0.58957,-0.39744,9.82161,0,0,0.6
15.938,611895.899,0.58957,-0.39744,9.81683,0,0,0.6
15.958,611895.919,0.59436,-0.39744,9.82161,0,0,0.6
15.978,611895.939,0.59436,-0.39265,9.81683,0,0,0.6
16.001,611895.959,0.58957,-0.39265,9.81683,0,0,0.6
16.022,611895.979,0.58957,-0.39744,9.81683,0,0,0.6
16.04,611895.999,0.58957,-0.39744,9.8264,0,0,0.6
16.06,611896.019,0.59436,-0.39744,9.81683,0,0,0.6
16.081,611896.039,0.58957,-0.39744,9.81683,0,0,0.6
16.1,611896.059,0.59436,-0.39744,9.82161,0,0,0.6
16.121,611896.08,0.58957,-0.39265,9.82161,0,0,0.6
16.142,611896.1,0.58957,-0.39744,9.81683,0,0,0.6
16.16,611896.12,0.58957,-0.39744,9.81683,0,0,0.6
16.182,611896.14,0.58957,-0.39744,9.8264,0,0,0.6
16.203,611896.16,0.59436,-0.39744,9.81683,0,0,0.6
16.221,611896.18,0.58957,-0.39265,9.81683,0,0,0.6
16.244,611896.2,0.58957,-0.39265,9.81204,0,0,0.6
16.266,611896.22,0.58957,-0.39744,9.82161,0,0,0.6
16.283,611896.241,0.58957,-0.39265,9.81683,0,0,0.6
16.304,611896.261,0.59436,-0.39744,9.82161,0,0,0.6
16.32,611896.281,0.58957,-0.39744,9.81683,0,0,0.6
16.34,611896.301,0.58957,-0.39744,9.82161,0,0,0.6
16.364,611896.321,0.58478,-0.39744,9.81683,0,0,0.6
16.38,611896.341,0.58957,-0.39744,9.81683,0,0,0.6
16.406,611896.361,0.59436,-0.39744,9.81683,0,0,0.6
16.422,611896.381,0.58957,-0.39265,9.82161,0,0,0.6
16.442,611896.402,0.58957,-0.39265,9.81683,0,0,0.6
16.461,611896.422,0.58957,-0.40223,9.81683,0,0,0.6
16.481,611896.442,0.58478,-0.39265,9.82161,0,0,0.6
16.504,611896.462,0.58957,-0.39744,9.82161,0,0,0.6
16.528,611896.482,0.58478,-0.39744,9.81683,0,0,0.6
16.546,611896.502,0.59436,-0.39744,9.81683,0,0,0.6
16.564,611896.522,0.58957,-0.39744,9.82161,0,0,0.6
16.585,611896.542,0.58957,-0.39265,9.81204,0,0,0.6
16.603,611896.562,0.58957,-0.39265,9.82161,0,0,0.6
16.623,611896.583,0.58957,-0.39265,9.82161,0,0,0.6
16.644,611896.603,0.59436,-0.39744,9.81683,0,0,0.6
16.664,611896.623,0.59436,-0.39265,9.81204,0,0,0.6
16.688,611896.643,0.59436,-0.39744,9.82161,0,0,0.6
16.703,611896.663,0.59436,-0.39744,9.81683,0,0,0.6
16.726,611896.683,0.58957,-0.39265,9.81683,0,0,0.6
16.747,611896.703,0.58957,-0.39265,9.81683,0,0,0.6
16.763,611896.723,0.59436,-0.39744,9.81683,0,0,0.6
16.788,611896.744,0.58957,-0.39265,9.82161,0,0,0.6
16.806,611896.764,0.58478,-0.39265,9.82161,0,0,0.6
16.826,611896.784,0.58478,-0.39744,9.81683,0,0,0.6
16.846,611896.804,0.58957,-0.39744,9.81683,0,0,0.6
16.867,611896.824,0.58957,-0.39744,9.82161,0,0,0.6
16.887,611896.844,0.59436,-0.39265,9.82161,0,0,0.6
16.907,611896.864,0.58957,-0.39744,9.81683,0,0,0.6
16.927,611896.884,0.58957,-0.39744,9.82161,0,0,0.6
16.947,611896.905,0.58478,-0.39265,9.81683,0,0,0.6
16.967,611896.925,0.59436,-0.39744,9.81204,0,0,0.6
16.987,611896.945,0.59436,-0.39744,9.81683,0,0,0.6
17.01,611896.965,0.58957,-0.39265,9.81683,0,0,0.6
17.028,611896.985,0.58957,-0.39265,9.8264,0,0,0.6
17.049,611897.005,0.58957,-0.39744,9.81683,0,0,0.6
17.068,611897.025,0.59436,-0.39744,9.82161,0,0,0.6
17.088,611897.045,0.59436,-0.40223,9.81683,0,0,0.6
17.11,611897.066,0.58957,-0.39744,9.81683,0,0,0.6
17.128,611897.086,0.59915,-0.39744,9.81204,0,0,0.6
17.148,611897.106,0.58957,-0.39744,9.82161,0,0,0.6
17.165,611897.126,0.58957,-0.39744,9.81204,0,0,0.6
17.187,611897.146,0.58478,-0.39744,9.82161,0,0,0.6
17.206,611897.166,0.59436,-0.39744,9.81683,0,0,0.6
17.226,611897.186,0.58957,-0.39744,9.81683,0,0,0.6
17.249,611897.206,0.58957,-0.39744,9.81683,0,0,0.6
17.268,611897.226,0.59436,-0.39265,9.81683,0,0,0.6
17.296,611897.247,0.59436,-0.40223,9.82161,0,0,0.6
17.308,611897.267,0.58478,-0.39265,9.82161,0,0,0.6
17.326,611897.287,0.58957,-0.39744,9.82161,0,0,0.6
17.348,611897.307,0.58957,-0.40223,9.82161,0,0,0.6
17.37,611897.327,0.58957,-0.39744,9.82161,0,0,0.6
17.39,611897.347,0.59436,-0.39265,9.82161,0,0,0.6
17.408,611897.367,0.58957,-0.39744,9.82161,0,0,0.6
17.431,611897.387,0.58957,-0.39265,9.82161,0,0,0.6
17.451,611897.408,0.59436,-0.39265,9.81683,0,0,0.6
17.471,611897.428,0.59436,-0.39265,9.8264,0,0,0.6
17.491,611897.448,0.59436,-0.39744,9.82161,0,0,0.6
17.508,611897.468,0.58957,-0.39744,9.81683,0,0,0.6
17.529,611897.488,0.58957,-0.39744,9.81683,0,0,0.6
17.551,611897.508,0.58957,-0.39744,9.82161,0,0,0.6
17.573,611897.528,0.58957,-0.38786,9.82161,0,0,0.6
17.599,611897.548,0.58957,-0.39744,9.81683,0,0,0.6
17.636,611897.569,0.58478,-0.39744,9.82161,0,0,0.6
17.637,611897.589,0.58957,-0.39744,9.81683,0,0,0.6
17.649,611897.609,0.58957,-0.39744,9.81683,0,0,0.6
17.669,611897.629,0.58957,-0.39744,9.8264,0,0,0.6
17.693,611897.649,0.58957,-0.39265,9.82161,0,0,0.6
17.713,611897.669,0.58957,-0.39744,9.82161,0,0,0.6
17.735,611897.689,0.58957,-0.39744,9.82161,0,0,0.6
17.752,611897.709,0.58957,-0.39265,9.8264,0,0,0.6
17.774,611897.729,0.58957,-0.39744,9.8264,0,0,0.6
17.791,611897.75,0.59436,-0.39744,9.8264,0,0,0.6
17.812,611897.77,0.58957,-0.40223,9.82161,0,0,0.6
17.83,611897.79,0.58957,-0.39744,9.8264,0,0,0.6
17.851,611897.81,0.58957,-0.39265,9.8264,0,0,0.6
17.871,611897.83,0.58957,-0.39265,9.82161,0,0,0.6
17.891,611897.85,0.58957,-0.39744,9.8264,0,0,0.6
17.911,611897.87,0.58957,-0.39744,9.82161,0,0,0.6
17.93,611897.89,0.58957,-0.39744,9.82161,0,0,0.6
17.952,611897.911,0.58957,-0.40223,9.82161,0,0,0.6
17.971,611897.931,0.58957,-0.39744,9.8264,0,0,0.6
17.993,611897.951,0.58957,-0.39744,9.8264,0,0,0.6
18.014,611897.971,0.58957,-0.39265,9.8264,0,0,0.6
18.032,611897.991,0.58957,-0.39744,9.83119,0,0,0.6
18.055,611898.011,0.58957,-0.40223,9.82161,0,0,0.6
18.074,611898.031,0.58957,-0.39744,9.8264,0,0,0.6
18.092,611898.051,0.58957,-0.39744,9.8264,0,0,0.6
18.113,611898.072,0.58957,-0.39744,9.8264,0,0,0.6
18.132,611898.092,0.58957,-0.39744,9.8264,0,0,0.6
18.154,611898.112,0.58957,-0.39744,9.8264,0,0,0.6
18.174,611898.132,0.58957,-0.39265,9.8264,0,0,0.6
18.193,611898.152,0.58957,-0.39265,9.83119,0,0,0.6
18.212,611898.172,0.58957,-0.39744,9.8264,0,0,0.6
18.233,611898.192,0.58957,-0.39744,9.8264,0,0,0.6
18.257,611898.212,0.58957,-0.39744,9.83119,0,0,0.6
18.277,611898.232,0.58957,-0.39744,9.8264,0,0,0.6
18.299,611898.253,0.59436,-0.39265,9.8264,0,0,0.6
18.314,611898.273,0.59436,-0.39744,9.83119,0,0,0.6
18.331,611898.293,0.58957,-0.39744,9.8264,0,0,0.6
18.355,611898.313,0.59436,-0.38786,9.83119,0,0,0.6
18.374,611898.333,0.58957,-0.39265,9.82161,0,0,0.6
18.393,611898.353,0.58957,-0.39744,9.8264,0,0,0.6
18.413,611898.373,0.58957,-0.39265,9.8264,0,0,0.6
18.435,611898.393,0.58478,-0.39265,9.8264,0,0,0.6
18.456,611898.414,0.59436,-0.39744,9.83119,0,0,0.6
18.479,611898.434,0.58957,-0.39744,9.8264,0,0,0.6
18.497,611898.454,0.58957,-0.39744,9.8264,0,0,0.6
18.518,611898.474,0.58957,-0.39744,9.83119,0,0,0.6
18.539,611898.494,0.58957,-0.39744,9.8264,0,0,0.6
18.555,611898.514,0.58957,-0.39744,9.83119,0,0,0.6
18.577,611898.534,0.58478,-0.39744,9.83119,0,0,0.6
18.596,611898.554,0.59436,-0.39744,9.82161,0,0,0.6
18.615,611898.575,0.58957,-0.39265,9.8264,0,0,0.6
18.637,611898.595,0.58957,-0.39265,9.83119,0,0,0.6
18.655,611898.615,0.58478,-0.39744,9.8264,0,0,0.6
18.676,611898.635,0.58957,-0.39744,9.83119,0,0,0.6
18.695,611898.655,0.58957,-0.39265,9.8264,0,0,0.6
18.718,611898.675,0.58957,-0.39265,9.82161,0,0,0.6
18.74,611898.695,0.58957,-0.39744,9.8264,0,0,0.6
18.757,611898.715,0.58957,-0.39744,9.83119,0,0,0.6
18.776,611898.736,0.59436,-0.39744,9.83119,0,0,0.6
18.798,611898.756,0.58957,-0.39744,9.82161,0,0,0.6
18.816,611898.776,0.59436,-0.39265,9.83119,0,0,0.6
18.839,611898.796,0.59436,-0.39744,9.83119,0,0,0.6
18.859,611898.816,0.59436,-0.39265,9.83119,0,0,0.6
18.876,611898.836,0.58957,-0.39744,9.8264,0,0,0.6
18.897,611898.856,0.59436,-0.39744,9.83119,0,0,0.6
18.917,611898.876,0.58478,-0.39265,9.8264,0,0,0.6
18.941,611898.896,0.58957,-0.39744,9.83598,0,0,0.6
18.961,611898.917,0.58957,-0.39744,9.8264,0,0,0.6
18.981,611898.937,0.58478,-0.39265,9.83119,0,0,0.6
19.001,611898.957,0.58957,-0.39744,9.82161,0,0,0.6
19.02,611898.977,0.58957,-0.39265,9.83119,0,0,0.6
19.04,611898.997,0.58957,-0.39744,9.8264,0,0,0.6
19.06,611899.017,0.58957,-0.39744,9.83598,0,0,0.6
19.081,611899.037,0.58957,-0.39744,9.8264,0,0,0.6
19.1,611899.057,0.58957,-0.38786,9.83119,0,0,0.6
19.12,611899.078,0.58957,-0.39265,9.8264,0,0,0.6
19.145,611899.098,0.58957,-0.39265,9.8264,0,0,0.6
19.16,611899.118,0.58957,-0.39744,9.8264,0,0,0.6
19.179,611899.138,0.58957,-0.39265,9.83119,0,0,0.6
19.2,611899.158,0.58957,-0.39265,9.8264,0,0,0.6
19.219,611899.178,0.58478,-0.39265,9.83119,0,0,0.6
19.238,611899.198,0.59436,-0.39265,9.8264,0,0,0.6
19.259,611899.218,0.59436,-0.39744,9.8264,0,0,0.6
19.282,611899.239,0.58478,-0.39265,9.8264,0,0,0.6
19.302,611899.259,0.58957,-0.39265,9.83119,0,0,0.6
19.321,611899.279,0.58957,-0.40223,9.8264,0,0,0.6
19.337,611899.299,0.59436,-0.39744,9.8264,0,0,0.6
19.363,611899.319,0.58957,-0.39744,9.8264,0,0,0.6
19.381,611899.339,0.59436,-0.39744,9.8264,0,0,0.6
19.401,611899.359,0.58957,-0.39744,9.83119,0,0,0.6
19.419,611899.379,0.58957,-0.39744,9.83119,0,0,0.6
19.44,611899.399,0.58957,-0.39744,9.83119,0,0,0.6
19.465,611899.42,0.58478,-0.39265,9.83119,0,0,0.6
19.484,611899.44,0.58957,-0.39265,9.83119,0,0,0.6
19.505,611899.46,0.58957,-0.39265,9.8264,0,0,0.6
19.522,611899.48,0.59436,-0.39744,9.83598,0,0,0.6
19.542,611899.5,0.58478,-0.39744,9.8264,0,0,0.6
19.562,611899.52,0.58957,-0.39744,9.83119,0,0,0.6
19.585,611899.54,0.58478,-0.39744,9.8264,0,0,0.6
19.644,611899.56,0.59436,-0.39744,9.83119,0,0,0.6
19.645,611899.581,0.58957,-0.39265,9.83119,0,0,0.6
19.65,611899.601,0.58957,-0.39744,9.83119,0,0,0.6
19.661,611899.621,0.59436,-0.39744,9.83119,0,0,0.6
19.684,611899.641,0.58957,-0.39744,9.83598,0,0,0.6
19.705,611899.661,0.58957,-0.39744,9.8264,0,0,0.6
19.726,611899.681,0.58957,-0.39744,9.83598,0,0,0.6
19.745,611899.701,0.58957,-0.39744,9.83598,0,0,0.6
19.765,611899.721,0.58478,-0.39265,9.83119,0,0,0.6
19.784,611899.742,0.58957,-0.40223,9.8264,0,0,0.6
19.806,611899.762,0.58478,-0.39265,9.8264,0,0,0.6
19.826,611899.782,0.58957,-0.40223,9.8264,0,0,0.6
19.845,611899.802,0.58957,-0.40223,9.8264,0,0,0.6
19.867,611899.822,0.59436,-0.39744,9.83598,0,0,0.6
19.886,611899.842,0.59436,-0.39265,9.83119,0,0,0.6
19.903,611899.862,0.58957,-0.39265,9.8264,0,0,0.6
19.923,611899.882,0.58957,-0.39744,9.83119,0,0,0.6
19.942,611899.902,0.58957,-0.39744,9.83119,0,0,0.6
19.963,611899.923,0.58478,-0.39744,9.8264,0,0,0.6
19.983,611899.943,0.58957,-0.39265,9.8264,0,0,0.6
20.006,611899.963,0.58957,-0.40223,9.83598,0,0,0.6
20.026,611899.983,0.58478,-0.39265,9.83119,0,0,0.6
20.046,611900.003,0.59436,-0.38786,9.83598,0,0,0.6
20.066,611900.023,0.58957,-0.39265,9.83119,0,0,0.6
20.086,611900.043,0.59436,-0.39265,9.8264,0,0,0.6
20.106,611900.063,0.58957,-0.39744,9.83119,0,0,0.6
20.126,611900.084,0.59436,-0.39744,9.83119,0,0,0.6
20.147,611900.104,0.58957,-0.39744,9.83119,0,0,0.6
20.163,611900.124,0.59436,-0.39265,9.83119,0,0,0.6
20.187,611900.144,0.58957,-0.39265,9.8264,0,0,0.6
20.206,611900.164,0.58957,-0.40223,9.83119,0,0,0.6
20.226,611900.184,0.59436,-0.39744,9.8264,0,0,0.6
20.247,611900.204,0.58957,-0.39744,9.83119,0,0,0.6
20.267,611900.224,0.59436,-0.39744,9.83598,0,0,0.6
20.292,611900.245,0.58957,-0.39744,9.83119,0,0,0.6
20.307,611900.265,0.58957,-0.39744,9.83119,0,0,0.6
20.324,611900.285,0.59436,-0.39265,9.8264,0,0,0.6
20.345,611900.305,0.58957,-0.39744,9.83598,0,0,0.6
20.365,611900.325,0.59436,-0.39744,9.8264,0,0,0.6
20.388,611900.345,0.58957,-0.39744,9.83119,0,0,0.6
20.408,611900.365,0.59436,-0.39744,9.83119,0,0,0.6
20.428,611900.385,0.58957,-0.39744,9.83119,0,0,0.6
20.451,611900.405,0.58957,-0.39744,9.8264,0,0,0.6
20.468,611900.426,0.58957,-0.39744,9.83598,0,0,0.6
20.489,611900.446,0.59436,-0.39744,9.8264,0,0,0.6
20.506,611900.466,0.58957,-0.38786,9.83119,0,0,0.6
20.528,611900.486,0.58957,-0.39744,9.83119,0,0,0.6
20.551,611900.506,0.58957,-0.39744,9.8264,0,0,0.6
20.569,611900.526,0.59436,-0.39744,9.8264,0,0,0.6
20.59,611900.546,0.58957,-0.39744,9.83119,0,0,0.6
20.61,611900.566,0.58957,-0.39265,9.8264,0,0,0.6
20.629,611900.587,0.59436,-0.40223,9.83119,0,0,0.6
20.648,611900.607,0.59436,-0.39265,9.83598,0,0,0.6
20.667,611900.627,0.58957,-0.39265,9.83119,0,0,0.6
20.69,611900.647,0.59436,-0.40223,9.83119,0,0,0.6
20.71,611900.667,0.59436,-0.39265,9.8264,0,0,0.6
20.731,611900.687,0.58478,-0.39744,9.83598,0,0,0.6
20.748,611900.707,0.58957,-0.39265,9.83119,0,0,0.6
20.768,611900.727,0.58957,-0.39265,9.83119,0,0,0.6
20.789,611900.748,0.58957,-0.39744,9.83119,0,0,0.6
20.81,611900.768,0.58957,-0.39744,9.83119,0,0,0.6
20.827,611900.788,0.59436,-0.39265,9.83119,0,0,0.6
20.847,611900.808,0.59436,-0.39744,9.83119,0,0,0.6
20.871,611900.828,0.58957,-0.39744,9.83119,0,0,0.6
20.888,611900.848,0.58957,-0.39744,9.83119,0,0,0.6
20.91,611900.868,0.58957,-0.39744,9.8264,0,0,0.6
20.929,611900.888,0.58957,-0.40223,9.83598,0,0,0.6
20.948,611900.909,0.58478,-0.39265,9.83119,0,0,0.6
20.969,611900.929,0.58957,-0.39265,9.83119,0,0,0.6
20.989,611900.949,0.59436,-0.39265,9.8264,0,0,0.6
21.008,611900.969,0.58957,-0.39265,9.83119,0,0,0.6
21.03,611900.989,0.58478,-0.39744,9.83119,0,0,0.6
21.051,611901.009,0.58478,-0.39744,9.83119,0,0,0.6
21.072,611901.029,0.58957,-0.39744,9.83598,0,0,0.6
21.094,611901.049,0.58957,-0.39744,9.83119,0,0,0.6
21.116,611901.069,0.58957,-0.39744,9.83119,0,0,0.6
21.133,611901.09,0.59436,-0.40223,9.8264,0,0,0.6
21.149,611901.11,0.58957,-0.39744,9.83598,0,0,0.6
21.17,611901.13,0.58957,-0.39265,9.83119,0,0,0.6
21.19,611901.15,0.58957,-0.39265,9.83598,0,0,0.6
21.21,611901.17,0.58957,-0.39744,9.83119,0,0,0.6
21.23,611901.19,0.58957,-0.39265,9.8264,0,0,0.6
21.251,611901.21,0.58957,-0.39265,9.8264,0,0,0.6
21.27,611901.23,0.58957,-0.39265,9.83598,0,0,0.6
21.302,611901.251,0.58957,-0.39744,9.8264,0,0,0.6
21.31,611901.271,0.58957,-0.39744,9.83119,0,0,0.6
21.33,611901.291,0.58957,-0.39265,9.83119,0,0,0.6
21.352,611901.311,0.58957,-0.39744,9.8264,0,0,0.6
21.374,611901.331,0.58957,-0.40223,9.83119,0,0,0.6
21.391,611901.351,0.58957,-0.39265,9.8264,0,0,0.6
21.414,611901.371,0.58478,-0.39265,9.83119,0,0,0.6
21.435,611901.391,0.58957,-0.40223,9.83598,0,0,0.6
21.456,611901.412,0.58957,-0.39744,9.83119,0,0,0.6
21.476,611901.432,0.58478,-0.39265,9.83119,0,0,0.6
21.497,611901.452,0.58957,-0.39744,9.8264,0,0,0.6
21.516,611901.472,0.58957,-0.39744,9.83119,0,0,0.6
21.537,611901.492,0.58957,-0.38786,9.83119,0,0,0.6
21.555,611901.512,0.58478,-0.39265,9.83119,0,0,0.6
21.576,611901.532,0.58957,-0.39744,9.8264,0,0,0.6
21.6,611901.552,0.59436,-0.39744,9.83598,0,0,0.6
21.655,611901.572,0.58957,-0.39265,9.83119,0,0,0.6
21.655,611901.593,0.58957,-0.39744,9.83598,0,0,0.6
21.657,611901.613,0.59436,-0.40223,9.83119,0,0,0.6
21.674,611901.633,0.58957,-0.39744,9.83598,0,0,0.6
21.692,611901.653,0.58957,-0.39744,9.8264,0,0,0.6
21.715,611901.673,0.58957,-0.39744,9.8264,0,0,0.6
21.734,611901.693,0.59436,-0.39744,9.83119,0,0,0.6
21.757,611901.713,0.58478,-0.39744,9.83119,0,0,0.6
21.774,611901.733,0.58957,-0.39265,9.83119,0,0,0.6
21.796,611901.754,0.59436,-0.40223,9.83119,0,0,0.6
21.814,611901.774,0.58957,-0.39265,9.83119,0,0,0.6
21.838,611901.794,0.58478,-0.39744,9.8264,0,0,0.6
21.854,611901.814,0.58957,-0.40223,9.8264,0,0,0.6
21.877,611901.834,0.58478,-0.39744,9.83119,0,0,0.6
21.899,611901.854,0.58957,-0.39744,9.83598,0,0,0.6
21.915,611901.874,0.59436,-0.39265,9.8264,0,0,0.6
21.936,611901.894,0.58957,-0.39265,9.83119,0,0,0.6
21.957,611901.915,0.58957,-0.39744,9.8264,0,0,0.6
21.978,611901.935,0.58957,-0.39265,9.83119,0,0,0.6
22.0,611901.955,0.59436,-0.39744,9.8264,0,0,0.6
22.017,611901.975,0.59436,-0.40223,9.8264,0,0,0.6
22.039,611901.995,0.59436,-0.39744,9.8264,0,0,0.6
22.057,611902.015,0.59436,-0.39744,9.83119,0,0,0.6
22.077,611902.035,0.58957,-0.39744,9.83119,0,0,0.6
22.099,611902.055,0.59436,-0.39265,9.82161,0,0,0.6
22.122,611902.075,0.59436,-0.39265,9.83119,0,0,0.6
22.135,611902.096,0.58957,-0.39265,9.8264,0,0,0.6
22.159,611902.116,0.58957,-0.40223,9.83119,0,0,0.6
22.177,611902.136,0.58957,-0.39744,9.83119,0,0,0.6
22.199,611902.156,0.58957,-0.39265,9.82161,0,0,0.6
22.215,611902.176,0.59436,-0.39744,9.84077,0,0,0.6
22.238,611902.196,0.58957,-0.39744,9.8264,0,0,0.6
22.26,611902.216,0.59436,-0.39265,9.8264,0,0,0.6
22.281,611902.236,0.58957,-0.39744,9.83119,0,0,0.6
22.305,611902.257,0.58957,-0.40223,9.83119,0,0,0.6
22.318,611902.277,0.59436,-0.39744,9.8264,0,0,0.6
22.336,611902.297,0.58957,-0.40223,9.83598,0,0,0.6
22.357,611902.317,0.59436,-0.39744,9.8264,0,0,0.6
22.379,611902.337,0.58957,-0.40223,9.83119,0,0,0.6
22.402,611902.357,0.58478,-0.40223,9.8264,0,0,0.6
22.421,611902.377,0.58957,-0.39744,9.8264,0,0,0.6
22.441,611902.397,0.58957,-0.39265,9.8264,0,0,0.6
22.462,611902.418,0.59436,-0.39744,9.83598,0,0,0.6
22.481,611902.438,0.58478,-0.39744,9.8264,0,0,0.6
22.502,611902.458,0.58478,-0.39744,9.8264,0,0,0.6
22.522,611902.478,0.58957,-0.39744,9.82161,0,0,0.6
22.543,611902.498,0.58957,-0.39744,9.83119,0,0,0.6
22.558,611902.518,0.58957,-0.39265,9.8264,0,0,0.6
22.581,611902.538,0.58478,-0.39265,9.8264,0,0,0.6
22.604,611902.558,0.58957,-0.40223,9.8264,0,0,0.6
22.619,611902.578,0.58478,-0.39744,9.83119,0,0,0.6
22.645,611902.599,0.58957,-0.39265,9.8264,0,0,0.6
22.659,611902.619,0.58957,-0.39744,9.82161,0,0,0.6
22.68,611902.639,0.58957,-0.39744,9.8264,0,0,0.6
22.704,611902.659,0.58478,-0.39744,9.8264,0,0,0.6
22.72,611902.679,0.59436,-0.39744,9.83119,0,0,0.6
22.745,611902.699,0.58957,-0.39265,9.83119,0,0,0.6
22.761,611902.719,0.59436,-0.39744,9.83119,0,0,0.6
22.781,611902.739,0.58478,-0.39744,9.8264,0,0,0.6
22.805,611902.76,0.58478,-0.39265,9.83598,0,0,0.6
22.821,611902.78,0.58957,-0.39744,9.8264,0,0,0.6
22.842,611902.8,0.58957,-0.39265,9.83598,0,0,0.6
22.865,611902.82,0.58957,-0.39744,9.8264,0,0,0.6
22.881,611902.84,0.59436,-0.39744,9.83119,0,0,0.6
22.907,611902.86,0.58957,-0.40223,9.8264,0,0,0.6
22.926,611902.88,0.58478,-0.39744,9.83598,0,0,0.6
22.945,611902.9,0.58957,-0.39744,9.8264,0,0,0.6
22.964,611902.921,0.58957,-0.39744,9.83119,0,0,0.6
22.984,611902.941,0.59436,-0.39744,9.83119,0,0,0.6
23.004,611902.961,0.59436,-0.39265,9.8264,0,0,0.6
23.025,611902.981,0.59436,-0.39744,9.8264,0,0,0.6
23.047,611903.001,0.59436,-0.39265,9.83119,0,0,0.6
23.066,611903.021,0.58957,-0.39744,9.8264,0,0,0.6
23.086,611903.041,0.59436,-0.39744,9.83119,0,0,0.6
23.105,611903.061,0.58957,-0.39265,9.8264,0,0,0.6
23.126,611903.081,0.59436,-0.39265,9.8264,0,0,0.6
23.143,611903.102,0.58957,-0.39265,9.83119,0,0,0.6
23.163,611903.122,0.58957,-0.39744,9.82161,0,0,0.6
23.181,611903.142,0.59436,-0.39744,9.83598,0,0,0.6
23.202,611903.162,0.58957,-0.39744,9.82161,0,0,0.6
23.223,611903.182,0.58478,-0.39744,9.83119,0,0,0.6
23.244,611903.202,0.58478,-0.39744,9.8264,0,0,0.6
23.265,611903.222,0.58957,-0.39265,9.84077,0,0,0.6
23.288,611903.242,0.58957,-0.39265,9.83119,0,0,0.6
23.304,611903.263,0.58957,-0.39744,9.83119,0,0,0.6
23.321,611903.283,0.58957,-0.39744,9.8264,0,0,0.6
23.345,611903.303,0.59436,-0.39265,9.83119,0,0,0.6
23.366,611903.323,0.58957,-0.39744,9.83119,0,0,0.6
23.386,611903.343,0.59436,-0.38786,9.8264,0,0,0.6
23.406,611903.363,0.59436,-0.39744,9.83119,0,0,0.6
23.426,611903.383,0.58957,-0.39744,9.8264,0,0,0.6
23.444,611903.403,0.58478,-0.39744,9.8264,0,0,0.6
23.466,611903.424,0.58957,-0.39744,9.8264,0,0,0.6
23.486,611903.444,0.59436,-0.40223,9.8264,0,0,0.6
23.505,611903.464,0.59436,-0.39265,9.8264,0,0,0.6
23.524,611903.484,0.58957,-0.39265,9.83119,0,0,0.6
23.548,611903.504,0.58957,-0.39744,9.83119,0,0,0.6
23.567,611903.524,0.58957,-0.39265,9.83119,0,0,0.6
23.587,611903.544,0.58957,-0.39744,9.83119,0,0,0.6
23.645,611903.564,0.58957,-0.39744,9.83119,0,0,0.6
23.647,611903.585,0.58957,-0.40223,9.83119,0,0,0.6
23.648,611903.605,0.58478,-0.39265,9.83119,0,0,0.6
23.665,611903.625,0.58957,-0.39265,9.8264,0,0,0.6
23.686,611903.645,0.58957,-0.39265,9.83119,0,0,0.6
23.709,611903.665,0.58957,-0.39744,9.8264,0,0,0.6
23.728,611903.685,0.58478,-0.39744,9.83119,0,0,0.6
23.747,611903.705,0.58957,-0.40223,9.83119,0,0,0.6
23.769,611903.725,0.58957,-0.39744,9.83598,0,0,0.6
23.788,611903.745,0.58478,-0.39744,9.83119,0,0,0.6
23.807,611903.766,0.58957,-0.39265,9.83119,0,0,0.6
23.826,611903.786,0.58957,-0.39265,9.83119,0,0,0.6
23.846,611903.806,0.59436,-0.39744,9.8264,0,0,0.6
23.866,611903.826,0.58957,-0.39744,9.83119,0,0,0.6
23.887,611903.846,0.58478,-0.39265,9.83598,0,0,0.6
23.908,611903.866,0.59436,-0.39744,9.83119,0,0,0.6
23.928,611903.886,0.58957,-0.39744,9.83598,0,0,0.6
23.948,611903.906,0.58957,-0.39744,9.83598,0,0,0.6
23.967,611903.927,0.58957,-0.39265,9.83119,0,0,0.6
23.987,611903.947,0.59436,-0.39744,9.83119,0,0,0.6
24.006,611903.967,0.58478,-0.39744,9.83119,0,0,0.6
24.026,611903.987,0.58478,-0.39265,9.83119,0,0,0.6
24.047,611904.007,0.58957,-0.39744,9.83119,0,0,0.6
24.069,611904.027,0.58957,-0.40223,9.83598,0,0,0.6
24.088,611904.047,0.58957,-0.39265,9.83598,0,0,0.6
24.112,611904.067,0.59436,-0.39265,9.83119,0,0,0.6
24.129,611904.088,0.58957,-0.39744,9.83598,0,0,0.6
24.148,611904.108,0.58478,-0.39265,9.82161,0,0,0.6
24.17,611904.128,0.58957,-0.39265,9.83119,0,0,0.6
24.19,611904.148,0.58957,-0.40223,9.83119,0,0,0.6
24.21,611904.168,0.59436,-0.39744,9.83119,0,0,0.6
24.228,611904.188,0.58957,-0.39265,9.83119,0,0,0.6
24.249,611904.208,0.58478,-0.39265,9.83119,0,0,0.6
24.271,611904.228,0.59436,-0.39744,9.8264,0,0,0.6
24.291,611904.248,0.58957,-0.40223,9.8264,0,0,0.6
24.315,611904.269,0.58957,-0.39265,9.83119,0,0,0.6
24.328,611904.289,0.59436,-0.39265,9.82161,0,0,0.6
24.348,611904.309,0.59436,-0.39744,9.83119,0,0,0.6
24.369,611904.329,0.58957,-0.39265,9.8264,0,0,0.6
24.389,611904.349,0.58957,-0.39744,9.83119,0,0,0.6
24.409,611904.369,0.58957,-0.39744,9.83119,0,0,0.6
24.431,611904.389,0.58957,-0.39744,9.83119,0,0,0.6
24.451,611904.409,0.58957,-0.39265,9.8264,0,0,0.6
24.474,611904.43,0.58957,-0.39265,9.83598,0,0,0.6
24.492,611904.45,0.59436,-0.39744,9.8264,0,0,0.6
24.513,611904.47,0.59436,-0.40223,9.83598,0,0,0.6
24.53,611904.49,0.59915,-0.39744,9.82161,0,0,0.6
24.552,611904.51,0.59436,-0.39265,9.83119,0,0,0.6
24.575,611904.53,0.58957,-0.39744,9.8264,0,0,0.6
24.595,611904.55,0.59436,-0.39744,9.83598,0,0,0.6
24.613,611904.57,0.58957,-0.39265,9.8264,0,0,0.6
24.636,611904.591,0.58957,-0.39744,9.83119,0,0,0.6
24.653,611904.611,0.59436,-0.39744,9.83119,0,0,0.6
24.676,611904.631,0.58957,-0.39265,9.83598,0,0,0.6
24.694,611904.651,0.58478,-0.39265,9.83598,0,0,0.6
24.716,611904.671,0.59436,-0.40223,9.83119,0,0,0.6
24.736,611904.691,0.58957,-0.39744,9.83598,0,0,0.6
24.754,611904.711,0.59436,-0.39744,9.8264,0,0,0.6
24.774,611904.731,0.58957,-0.39744,9.83598,0,0,0.6
24.792,611904.751,0.58957,-0.39744,9.8264,0,0,0.6
24.814,611904.772,0.58478,-0.39744,9.8264,0,0,0.6
24.832,611904.792,0.58957,-0.38786,9.83598,0,0,0.6
24.852,611904.812,0.58957,-0.39265,9.83119,0,0,0.6
24.872,611904.832,0.58478,-0.39265,9.83119,0,0,0.6
24.893,611904.852,0.58478,-0.39265,9.83119,0,0,0.6
24.913,611904.872,0.58478,-0.39744,9.83598,0,0,0.6
24.935,611904.892,0.58957,-0.39744,9.83119,0,0,0.6
24.953,611904.912,0.58957,-0.39265,9.83119,0,0,0.6
24.973,611904.933,0.58957,-0.39265,9.83119,0,0,0.6
24.995,611904.953,0.58957,-0.39265,9.83598,0,0,0.6
25.014,611904.973,0.59436,-0.39265,9.83119,0,0,0.6
25.035,611904.993,0.58957,-0.39265,9.8264,0,0,0.6
25.053,611905.013,0.58957,-0.39744,9.83119,0,0,0.6
25.075,611905.033,0.59436,-0.39744,9.83119,0,0,0.6
25.098,611905.053,0.58957,-0.39265,9.8264,0,0,0.6
25.115,611905.073,0.58957,-0.39265,9.8264,0,0,0.6
25.137,611905.094,0.58957,-0.39265,9.83598,0,0,0.6
25.157,611905.114,0.58957,-0.39265,9.83119,0,0,0.6
25.173,611905.134,0.58957,-0.39265,9.8264,0,0,0.6
25.195,611905.154,0.59436,-0.39744,9.83119,0,0,0.6
25.216,611905.174,0.58478,-0.39744,9.8264,0,0,0.6
25.235,611905.194,0.59436,-0.39744,9.83119,0,0,0.6
25.258,611905.214,0.59436,-0.39265,9.83598,0,0,0.6
25.277,611905.234,0.58957,-0.39744,9.8264,0,0,0.6
25.296,611905.254,0.59436,-0.40223,9.83119,0,0,0.6
25.315,611905.275,0.58957,-0.39744,9.83119,0,0,0.6
25.334,611905.295,0.58957,-0.39265,9.83598,0,0,0.6
25.357,611905.315,0.58957,-0.39744,9.83119,0,0,0.6
25.378,611905.335,0.58957,-0.39265,9.83598,0,0,0.6
25.399,611905.355,0.58957,-0.39265,9.83119,0,0,0.6
25.421,611905.375,0.58957,-0.39744,9.8264,0,0,0.6
25.438,611905.395,0.58957,-0.39744,9.83119,0,0,0.6
25.458,611905.415,0.58478,-0.40223,9.83119,0,0,0.6
25.475,611905.436,0.59436,-0.39265,9.83119,0,0,0.6
25.499,611905.456,0.58957,-0.39744,9.83119,0,0,0.6
25.517,611905.476,0.59436,-0.40223,9.83119,0,0,0.6
25.539,611905.496,0.58957,-0.39744,9.83598,0,0,0.6
25.558,611905.516,0.58957,-0.39265,9.83119,0,0,0.6
25.577,611905.536,0.59436,-0.39744,9.8264,0,0,0.6
25.6,611905.556,0.59436,-0.39744,9.83119,0,0,0.6
25.647,611905.576,0.58478,-0.39265,9.83119,0,0,0.6
25.648,611905.597,0.58957,-0.39265,9.83119,0,0,0.6
25.66,611905.617,0.59436,-0.40223,9.83119,0,0,0.6
25.679,611905.637,0.58957,-0.39744,9.83119,0,0,0.6
25.699,611905.657,0.58957,-0.39265,9.83119,0,0,0.6
25.719,611905.677,0.58957,-0.39744,9.83119,0,0,0.6
25.737,611905.697,0.59436,-0.39744,9.82161,0,0,0.6
25.76,611905.717,0.58957,-0.39744,9.83598,0,0,0.6
25.781,611905.737,0.59436,-0.39744,9.83119,0,0,0.6
25.801,611905.757,0.58957,-0.40223,9.83598,0,0,0.6
25.819,611905.778,0.58957,-0.39744,9.83598,0,0,0.6
25.84,611905.798,0.58957,-0.39744,9.83598,0,0,0.6
25.859,611905.818,0.58957,-0.39744,9.82161,0,0,0.6
25.881,611905.838,0.58957,-0.39265,9.83119,0,0,0.6
25.9,611905.858,0.59436,-0.39744,9.8264,0,0,0.6
25.921,611905.878,0.58957,-0.40223,9.83598,0,0,0.6
25.94,611905.898,0.58957,-0.39265,9.83119,0,0,0.6
25.96,611905.918,0.58957,-0.39265,9.83119,0,0,0.6
25.979,611905.939,0.59436,-0.39744,9.83119,0,0,0.6
25.999,611905.959,0.58957,-0.39744,9.83119,0,0,0.6
26.019,611905.979,0.58957,-0.39744,9.83119,0,0,0.6
26.042,611905.999,0.58957,-0.39265,9.83119,0,0,0.6
26.063,611906.019,0.58478,-0.39265,9.83119,0,0,0.6
26.083,611906.039,0.58957,-0.39744,9.83119,0,0,0.6
26.104,611906.059,0.58957,-0.39265,9.83119,0,0,0.6
26.128,611906.079,0.58957,-0.39265,9.83119,0,0,0.6
26.139,611906.1,0.58957,-0.39744,9.83598,0,0,0.6
26.163,611906.12,0.58478,-0.39744,9.8264,0,0,0.6
26.183,611906.14,0.58957,-0.39265,9.83119,0,0,0.6
26.205,611906.16,0.58957,-0.38786,9.83119,0,0,0.6
26.224,611906.18,0.59436,-0.39265,9.83119,0,0,0.6
26.244,611906.2,0.58957,-0.38786,9.83119,0,0,0.6
26.263,611906.22,0.59436,-0.39744,9.83119,0,0,0.6
26.287,611906.24,0.58957,-0.39744,9.83119,0,0,0.6
26.326,611906.26,0.58957,-0.39744,9.83119,0,0,0.6
26.327,611906.281,0.58957,-0.39744,9.8264,0,0,0.6
26.34,611906.301,0.58957,-0.39744,9.83119,0,0,0.6
26.363,611906.321,0.58478,-0.39265,9.83119,0,0,0.6
26.384,611906.341,0.58957,-0.39744,9.83119,0,0,0.6
26.404,611906.361,0.59436,-0.39265,9.83119,0,0,0.6
26.427,611906.381,0.59436,-0.39265,9.83598,0,0,0.6
26.442,611906.401,0.58478,-0.39744,9.83119,0,0,0.6
26.467,611906.421,0.58957,-0.39744,9.83119,0,0,0.6
26.487,611906.442,0.58957,-0.39744,9.83598,0,0,0.6
26.506,611906.462,0.58957,-0.39744,9.83598,0,0,0.6
26.526,611906.482,0.59436,-0.39744,9.83119,0,0,0.6
26.543,611906.502,0.59436,-0.39744,9.83119,0,0,0.6
26.565,611906.522,0.58478,-0.39265,9.83119,0,0,0.6
26.582,611906.542,0.59436,-0.39265,9.83119,0,0,0.6
26.606,611906.562,0.58957,-0.39744,9.83598,0,0,0.6
26.624,611906.582,0.58478,-0.39744,9.83119,0,0,0.6
26.643,611906.603,0.59436,-0.39744,9.83119,0,0,0.6
26.667,611906.623,0.58957,-0.39265,9.83119,0,0,0.6
26.687,611906.643,0.58957,-0.39744,9.83598,0,0,0.6
26.704,611906.663,0.59436,-0.40223,9.83119,0,0,0.6
26.725,611906.683,0.58478,-0.39744,9.8264,0,0,0.6
26.746,611906.703,0.59436,-0.39265,9.83119,0,0,0.6
26.766,611906.723,0.58957,-0.39265,9.83598,0,0,0.6
26.785,611906.743,0.59915,-0.40223,9.83119,0,0,0.6
26.806,611906.764,0.58957,-0.39744,9.8264,0,0,0.6
26.826,611906.784,0.58957,-0.39744,9.8264,0,0,0.6
26.846,611906.804,0.58957,-0.39744,9.83119,0,0,0.6
26.865,611906.824,0.58478,-0.39265,9.8264,0,0,0.6
26.885,611906.844,0.58957,-0.39744,9.83598,0,0,0.6
26.904,611906.864,0.58957,-0.39744,9.83119,0,0,0.6
26.924,611906.884,0.58957,-0.39265,9.83598,0,0,0.6
26.947,611906.904,0.58957,-0.39265,9.83119,0,0,0.6
26.965,611906.924,0.59436,-0.39744,9.83119,0,0,0.6
26.985,611906.945,0.58957,-0.40223,9.8264,0,0,0.6
27.004,611906.965,0.58957,-0.39744,9.83598,0,0,0.6
27.027,611906.985,0.58957,-0.39744,9.83119,0,0,0.6
27.046,611907.005,0.58957,-0.39744,9.83598,0,0,0.6
27.066,611907.025,0.58957,-0.39744,9.83119,0,0,0.6
27.09,611907.045,0.58478,-0.39265,9.83119,0,0,0.6
27.108,611907.065,0.58957,-0.39744,9.83119,0,0,0.6
27.127,611907.085,0.58957,-0.39265,9.83598,0,0,0.6
27.147,611907.106,0.59436,-0.39744,9.83119,0,0,0.6
27.165,611907.126,0.58957,-0.39744,9.83598,0,0,0.6
27.186,611907.146,0.58957,-0.40223,9.83119,0,0,0.6
27.207,611907.166,0.58478,-0.40223,9.83598,0,0,0.6
27.225,611907.186,0.58957,-0.39265,9.8264,0,0,0.6
27.251,611907.206,0.58957,-0.39265,9.83119,0,0,0.6
27.265,611907.226,0.59436,-0.39744,9.8264,0,0,0.6
27.286,611907.246,0.58478,-0.39265,9.83598,0,0,0.6
27.305,611907.267,0.58957,-0.39265,9.83119,0,0,0.6
27.325,611907.287,0.58957,-0.39744,9.8264,0,0,0.6
27.346,611907.307,0.58957,-0.39744,9.83119,0,0,0.6
27.369,611907.327,0.58957,-0.39265,9.83598,0,0,0.6
27.388,611907.347,0.58957,-0.39744,9.83119,0,0,0.6
27.411,611907.367,0.59436,-0.39265,9.83119,0,0,0.6
27.432,611907.387,0.58957,-0.39744,9.83119,0,0,0.6
27.45,611907.407,0.58478,-0.39744,9.83119,0,0,0.6
27.47,611907.427,0.58957,-0.39744,9.83119,0,0,0.6
27.49,611907.448,0.59436,-0.39265,9.83598,0,0,0.6
27.512,611907.468,0.59436,-0.39265,9.83119,0,0,0.6
27.531,611907.488,0.58957,-0.39265,9.8264,0,0,0.6
27.548,611907.508,0.59436,-0.40223,9.8264,0,0,0.6
27.568,611907.528,0.58957,-0.39744,9.83598,0,0,0.6
27.596,611907.548,0.58957,-0.39265,9.83598,0,0,0.6
27.637,611907.568,0.58957,-0.39265,9.83119,0,0,0.6
27.639,611907.588,0.58957,-0.39744,9.83119,0,0,0.6
27.651,611907.609,0.58957,-0.39265,9.83119,0,0,0.6
27.668,611907.629,0.58957,-0.39265,9.83119,0,0,0.6
27.692,611907.649,0.58478,-0.39744,9.83598,0,0,0.6
27.711,611907.669,0.59436,-0.39744,9.83598,0,0,0.6
27.731,611907.689,0.58957,-0.40223,9.83119,0,0,0.6
27.752,611907.709,0.58957,-0.39265,9.8264,0,0,0.6
27.773,611907.729,0.58957,-0.39744,9.8264,0,0,0.6
27.792,611907.749,0.58957,-0.39265,9.83119,0,0,0.6
27.812,611907.77,0.58957,-0.39744,9.83119,0,0,0.6
27.832,611907.79,0.58957,-0.39744,9.83119,0,0,0.6
27.855,611907.81,0.58478,-0.39265,9.83119,0,0,0.6
27.874,611907.83,0.59436,-0.39744,9.83119,0,0,0.6
27.894,611907.85,0.58957,-0.39744,9.83119,0,0,0.6
27.914,611907.87,0.58957,-0.39265,9.83119,0,0,0.6
27.933,611907.89,0.58957,-0.39265,9.83598,0,0,0.6
27.952,611907.91,0.59436,-0.39744,9.8264,0,0,0.6
27.973,611907.93,0.58957,-0.38786,9.83119,0,0,0.6
27.994,611907.951,0.58957,-0.39265,9.83119,0,0,0.6
28.014,611907.971,0.58957,-0.39744,9.83119,0,0,0.6
28.037,611907.991,0.58957,-0.39744,9.83119,0,0,0.6
28.054,611908.011,0.59436,-0.39265,9.83119,0,0,0.6
28.076,611908.031,0.59436,-0.39744,9.83119,0,0,0.6
28.094,611908.051,0.58957,-0.40223,9.83119,0,0,0.6
28.117,611908.071,0.58957,-0.39265,9.8264,0,0,0.6
28.135,611908.091,0.59436,-0.39744,9.83119,0,0,0.6
28.152,611908.112,0.59436,-0.39744,9.8264,0,0,0.6
28.172,611908.132,0.58957,-0.39265,9.83119,0,0,0.6
28.191,611908.152,0.58478,-0.39744,9.8264,0,0,0.6
28.214,611908.172,0.59436,-0.39265,9.83119,0,0,0.6
28.235,611908.192,0.58957,-0.39744,9.83119,0,0,0.6
28.258,611908.212,0.58957,-0.39265,9.83598,0,0,0.6
28.275,611908.232,0.58957,-0.39744,9.8264,0,0,0.6
28.296,611908.252,0.58957,-0.40223,9.83119,0,0,0.6
28.321,611908.273,0.59436,-0.39744,9.83119,0,0,0.6
28.332,611908.293,0.58478,-0.39265,9.83598,0,0,0.6
28.352,611908.313,0.58478,-0.39265,9.83119,0,0,0.6
28.372,611908.333,0.58957,-0.39265,9.83119,0,0,0.6
28.393,611908.353,0.59436,-0.39744,9.83119,0,0,0.6
28.416,611908.373,0.58478,-0.39744,9.8264,0,0,0.6
28.436,611908.393,0.58957,-0.39265,9.83119,0,0,0.6
28.456,611908.413,0.58957,-0.39744,9.8264,0,0,0.6
28.478,611908.433,0.59436,-0.39265,9.83119,0,0,0.6
28.496,611908.454,0.58957,-0.39744,9.83119,0,0,0.6
28.515,611908.474,0.58957,-0.39744,9.83119,0,0,0.6
28.538,611908.494,0.58957,-0.39744,9.83119,0,0,0.6
28.557,611908.514,0.58957,-0.39744,9.83119,0,0,0.6
28.576,611908.534,0.59915,-0.39265,9.83119,0,0,0.6
28.596,611908.554,0.59436,-0.39265,9.8264,0,0,0.6
28.618,611908.574,0.58957,-0.39744,9.83598,0,0,0.6
28.637,611908.594,0.59436,-0.39265,9.8264,0,0,0.6
28.658,611908.615,0.58957,-0.39265,9.83119,0,0,0.6
28.676,611908.635,0.58957,-0.39744,9.83598,0,0,0.6
28.695,611908.655,0.58478,-0.39744,9.83119,0,0,0.6
28.718,611908.675,0.59436,-0.39744,9.83598,0,0,0.6
28.736,611908.695,0.58957,-0.39744,9.8264,0,0,0.6
28.756,611908.715,0.58957,-0.39265,9.83119,0,0,0.6
28.776,611908.735,0.58957,-0.38786,9.83119,0,0,0.6
28.798,611908.755,0.59436,-0.39265,9.83119,0,0,0.6
28.819,611908.776,0.58478,-0.39744,9.83119,0,0,0.6
28.836,611908.796,0.59436,-0.39744,9.8264,0,0,0.6
28.859,611908.816,0.58957,-0.39744,9.83119,0,0,0.6
28.881,611908.836,0.58957,-0.39744,9.83598,0,0,0.6
28.897,611908.856,0.58957,-0.39744,9.83119,0,0,0.6
28.917,611908.876,0.59436,-0.39265,9.83119,0,0,0.6
28.939,611908.896,0.58957,-0.39265,9.83119,0,0,0.6
28.963,611908.916,0.58957,-0.39265,9.83598,0,0,0.6
28.979,611908.936,0.59436,-0.39265,9.8264,0,0,0.6
29.0,611908.957,0.58478,-0.39744,9.83119,0,0,0.6
29.017,611908.977,0.58957,-0.39265,9.83119,0,0,0.6
29.039,611908.997,0.58957,-0.39744,9.83598,0,0,0.6
29.059,611909.017,0.58957,-0.39744,9.83119,0,0,0.6
29.081,611909.037,0.58478,-0.40223,9.83119,0,0,0.6
29.1,611909.057,0.58957,-0.40223,9.8264,0,0,0.6
29.12,611909.077,0.58957,-0.39744,9.8264,0,0,0.6
29.138,611909.097,0.59436,-0.39744,9.83598,0,0,0.6
29.158,611909.118,0.58957,-0.40223,9.83119,0,0,0.6
29.178,611909.138,0.59436,-0.39265,9.82161,0,0,0.6
29.198,611909.158,0.58957,-0.38786,9.8264,0,0,0.6
29.221,611909.178,0.58478,-0.39744,9.83598,0,0,0.6
29.238,611909.198,0.59436,-0.39265,9.8264,0,0,0.6
29.261,611909.218,0.59436,-0.39744,9.83598,0,0,0.6
29.282,611909.238,0.58957,-0.39265,9.8264,0,0,0.6
29.306,611909.258,0.58478,-0.39744,9.83119,0,0,0.6
29.318,611909.279,0.58957,-0.39744,9.83119,0,0,0.6
29.337,611909.299,0.58478,-0.39265,9.8264,0,0,0.6
29.361,611909.319,0.58957,-0.39265,9.83119,0,0,0.6
29.381,611909.339,0.58957,-0.39744,9.8264,0,0,0.6
29.402,611909.359,0.58957,-0.39744,9.8264,0,0,0.6
29.42,611909.379,0.58957,-0.39744,9.8264,0,0,0.6
29.444,611909.399,0.58957,-0.39744,9.8264,0,0,0.6
29.46,611909.419,0.58957,-0.39744,9.8264,0,0,0.6
29.486,611909.439,0.58957,-0.39265,9.83119,0,0,0.6
29.503,611909.46,0.58957,-0.39265,9.83119,0,0,0.6
29.521,611909.48,0.58957,-0.39744,9.83119,0,0,0.6
29.546,611909.5,0.59436,-0.39744,9.83119,0,0,0.6
29.561,611909.52,0.58957,-0.39744,9.8264,0,0,0.6
29.583,611909.54,0.58957,-0.39744,9.83598,0,0,0.6
29.645,611909.56,0.59436,-0.39265,9.83119,0,0,0.6
29.65,611909.58,0.59436,-0.39744,9.83119,0,0,0.6
29.653,611909.6,0.58957,-0.39744,9.8264,0,0,0.6
29.66,611909.621,0.58957,-0.39744,9.8264,0,0,0.6
29.68,611909.641,0.58957,-0.40223,9.8264,0,0,0.6
29.701,611909.661,0.58478,-0.39265,9.8264,0,0,0.6
29.723,611909.681,0.58478,-0.39265,9.8264,0,0,0.6
29.742,611909.701,0.59436,-0.39265,9.83598,0,0,0.6
29.763,611909.721,0.59436,-0.39265,9.8264,0,0,0.6
29.783,611909.741,0.58957,-0.40223,9.83119,0,0,0.6
29.804,611909.761,0.59436,-0.39265,9.83598,0,0,0.6
29.824,611909.782,0.58957,-0.39744,9.83119,0,0,0.6
29.843,611909.802,0.58957,-0.39744,9.83119,0,0,0.6
29.866,611909.822,0.58478,-0.39744,9.83119,0,0,0.6
29.882,611909.842,0.59436,-0.39744,9.8264,0,0,0.6
29.906,611909.862,0.58957,-0.39744,9.8264,0,0,0.6
29.925,611909.882,0.58957,-0.39265,9.83598,0,0,0.6
29.947,611909.902,0.59915,-0.39744,9.8264,0,0,0.6
29.964,611909.922,0.58957,-0.39744,9.83119,0,0,0.6
29.983,611909.942,0.58478,-0.39744,9.83119,0,0,0.6
30.004,611909.963,0.58957,-0.39265,9.83119,0,0,0.6
30.026,611909.983,0.58957,-0.39265,9.8264,0,0,0.6
30.045,611910.003,0.58957,-0.39744,9.8264,0,0,0.6
30.066,611910.023,0.58957,-0.39744,9.83119,0,0,0.6
30.086,611910.043,0.58957,-0.39265,9.83119,0,0,0.6
30.104,611910.063,0.58478,-0.40223,9.83119,0,0,0.6
30.135,611910.083,0.59436,-0.39744,9.83119,0,0,0.6
30.144,611910.103,0.59436,-0.39265,9.83598,0,0,0.6
30.162,611910.124,0.59436,-0.39744,9.83119,0,0,0.6
30.185,611910.144,0.58957,-0.39744,9.82161,0,0,0.6
30.204,611910.164,0.58957,-0.39744,9.83119,0,0,0.6
30.226,611910.184,0.58957,-0.39265,9.83119,0,0,0.6
30.246,611910.204,0.58478,-0.39744,9.83119,0,0,0.6
30.268,611910.224,0.59436,-0.39265,9.83119,0,0,0.6
30.288,611910.244,0.58957,-0.39265,9.83119,0,0,0.6
30.308,611910.264,0.58478,-0.39744,9.83598,0,0,0.6
30.326,611910.285,0.58957,-0.39265,9.83119,0,0,0.6
30.344,611910.305,0.58957,-0.39265,9.8264,0,0,0.6
30.366,611910.325,0.58957,-0.39744,9.83598,0,0,0.6
30.387,611910.345,0.58957,-0.39744,9.83598,0,0,0.6
30.407,611910.365,0.58478,-0.39265,9.83119,0,0,0.6
30.43,611910.385,0.58478,-0.40223,9.83598,0,0,0.6
30.445,611910.405,0.59436,-0.39265,9.83119,0,0,0.6
30.468,611910.425,0.58957,-0.39744,9.83119,0,0,0.6
30.488,611910.446,0.58957,-0.39744,9.8264,0,0,0.6
30.508,611910.466,0.58478,-0.39744,9.83119,0,0,0.6
30.528,611910.486,0.58957,-0.39265,9.8264,0,0,0.6
30.548,611910.506,0.58957,-0.39744,9.83119,0,0,0.6
30.57,611910.526,0.58957,-0.39265,9.83119,0,0,0.6
30.591,611910.546,0.58957,-0.39744,9.83119,0,0,0.6
30.608,611910.566,0.58957,-0.39265,9.8264,0,0,0.6
30.63,611910.586,0.59436,-0.39744,9.83119,0,0,0.6
30.65,611910.606,0.58957,-0.39744,9.83119,0,0,0.6
30.67,611910.627,0.58478,-0.39265,9.83119,0,0,0.6
30.692,611910.647,0.58957,-0.39265,9.83119,0,0,0.6
30.71,611910.667,0.58957,-0.39265,9.8264,0,0,0.6
30.727,611910.687,0.58957,-0.40223,9.83119,0,0,0.6
30.747,611910.707,0.58957,-0.39744,9.83119,0,0,0.6
30.771,611910.727,0.58478,-0.39744,9.83119,0,0,0.6
30.787,611910.747,0.59436,-0.39265,9.83119,0,0,0.6
30.808,611910.767,0.58957,-0.39265,9.8264,0,0,0.6
30.828,611910.788,0.59436,-0.40223,9.83598,0,0,0.6
30.848,611910.808,0.58957,-0.39265,9.83598,0,0,0.6
30.868,611910.828,0.59436,-0.39265,9.83119,0,0,0.6
30.888,611910.848,0.58478,-0.39744,9.83119,0,0,0.6
30.91,611910.868,0.59436,-0.39744,9.83598,0,0,0.6
30.933,611910.888,0.59436,-0.39744,9.83119,0,0,0.6
30.952,611910.908,0.58957,-0.40223,9.83119,0,0,0.6
30.971,611910.928,0.58478,-0.40223,9.83119,0,0,0.6
30.99,611910.949,0.59436,-0.39744,9.83119,0,0,0.6
31.011,611910.969,0.59436,-0.39744,9.83119,0,0,0.6
31.029,611910.989,0.59436,-0.39265,9.83119,0,0,0.6
31.052,611911.009,0.59436,-0.39744,9.83598,0,0,0.6
31.072,611911.029,0.59436,-0.39744,9.83598,0,0,0.6
31.09,611911.049,0.58957,-0.39744,9.83119,0,0,0.6
31.112,611911.069,0.58957,-0.39265,9.83598,0,0,0.6
31.131,611911.089,0.59436,-0.39265,9.8264,0,0,0.6
31.149,611911.109,0.58957,-0.39744,9.83119,0,0,0.6
31.174,611911.13,0.59436,-0.39265,9.83119,0,0,0.6
31.189,611911.15,0.58957,-0.39744,9.83119,0,0,0.6
31.212,611911.17,0.59436,-0.39744,9.8264,0,0,0.6
31.232,611911.19,0.58957,-0.39744,9.83598,0,0,0.6
31.253,611911.21,0.58957,-0.39265,9.8264,0,0,0.6
31.274,611911.23,0.58957,-0.39744,9.83598,0,0,0.6
31.297,611911.25,0.59436,-0.39744,9.83598,0,0,0.6
31.312,611911.27,0.58957,-0.39744,9.83119,0,0,0.6
31.33,611911.291,0.58957,-0.39744,9.83598,0,0,0.6
31.354,611911.311,0.58957,-0.39265,9.83119,0,0,0.6
31.374,611911.331,0.58957,-0.39265,9.8264,0,0,0.6
31.394,611911.351,0.59436,-0.39265,9.83598,0,0,0.6
31.415,611911.371,0.58478,-0.39265,9.83119,0,0,0.6
31.434,611911.391,0.58957,-0.39744,9.8264,0,0,0.6
31.454,611911.411,0.58957,-0.39744,9.8264,0,0,0.6
31.475,611911.431,0.58957,-0.39744,9.83119,0,0,0.6
31.495,611911.452,0.59436,-0.39265,9.83119,0,0,0.6
31.515,611911.472,0.58957,-0.39265,9.83119,0,0,0.6
31.535,611911.492,0.58957,-0.39744,9.8264,0,0,0.6
31.555,611911.512,0.59436,-0.39265,9.83119,0,0,0.6
31.575,611911.532,0.59915,-0.39744,9.8264,0,0,0.6
31.6,611911.552,0.58957,-0.39265,9.82161,0,0,0.6
31.644,611911.572,0.58957,-0.39744,9.83119,0,0,0.6
31.646,611911.592,0.58957,-0.39744,9.83119,0,0,0.6
31.653,611911.612,0.58957,-0.39744,9.83598,0,0,0.6
31.673,611911.633,0.58957,-0.40223,9.8264,0,0,0.6
31.692,611911.653,0.58957,-0.40223,9.83119,0,0,0.6
31.713,611911.673,0.59436,-0.39265,9.83119,0,0,0.6
31.733,611911.693,0.58957,-0.39744,9.83598,0,0,0.6
31.754,611911.713,0.58957,-0.39744,9.8264,0,0,0.6
31.773,611911.733,0.59436,-0.39265,9.83119,0,0,0.6
31.798,611911.753,0.58957,-0.39265,9.8264,0,0,0.6
31.816,611911.773,0.58957,-0.39744,9.8264,0,0,0.6
31.838,611911.794,0.58957,-0.39265,9.8264,0,0,0.6
31.858,611911.814,0.59436,-0.39744,9.83119,0,0,0.6
31.876,611911.834,0.58957,-0.40223,9.83598,0,0,0.6
31.897,611911.854,0.58957,-0.39265,9.83119,0,0,0.6
31.915,611911.874,0.58957,-0.39744,9.8264,0,0,0.6
31.937,611911.894,0.58957,-0.39744,9.83119,0,0,0.6
31.957,611911.914,0.59436,-0.39744,9.83598,0,0,0.6
31.978,611911.934,0.58478,-0.39265,9.83119,0,0,0.6
31.998,611911.955,0.58478,-0.39265,9.83119,0,0,0.6
32.017,611911.975,0.58957,-0.39744,9.83598,0,0,0.6
32.04,611911.995,0.58957,-0.39265,9.83119,0,0,0.6
32.058,611912.015,0.58957,-0.39265,9.83119,0,0,0.6
32.08,611912.035,0.59436,-0.39744,9.83598,0,0,0.6
32.098,611912.055,0.58957,-0.39744,9.83119,0,0,0.6
32.122,611912.075,0.59436,-0.39265,9.83119,0,0,0.6
32.139,611912.095,0.59436,-0.39744,9.83119,0,0,0.6
32.157,611912.115,0.59436,-0.39744,9.83119,0,0,0.6
32.175,611912.136,0.58957,-0.39744,9.83119,0,0,0.6
32.2,611912.156,0.59436,-0.39265,9.8264,0,0,0.6
32.219,611912.176,0.58957,-0.39744,9.83119,0,0,0.6
32.236,611912.196,0.58957,-0.39265,9.83119,0,0,0.6
32.258,611912.216,0.58957,-0.39744,9.83598,0,0,0.6
32.28,611912.236,0.58957,-0.39744,9.8264,0,0,0.6
32.3,611912.256,0.59436,-0.39265,9.83598,0,0,0.6
32.32,611912.276,0.58957,-0.39265,9.83598,0,0,0.6
32.335,611912.297,0.58957,-0.39744,9.83119,0,0,0.6
32.356,611912.317,0.58957,-0.39744,9.83119,0,0,0.6
32.378,611912.337,0.58478,-0.39744,9.83119,0,0,0.6
32.397,611912.357,0.58957,-0.40223,9.83119,0,0,0.6
32.419,611912.377,0.59915,-0.39744,9.8264,0,0,0.6
32.44,611912.397,0.58957,-0.39744,9.8264,0,0,0.6
32.458,611912.417,0.59436,-0.39744,9.83119,0,0,0.6
32.483,611912.437,0.58957,-0.39744,9.83119,0,0,0.6
32.498,611912.458,0.58957,-0.39265,9.83119,0,0,0.6
32.519,611912.478,0.59436,-0.39744,9.83119,0,0,0.6
32.541,611912.498,0.58957,-0.39265,9.83119,0,0,0.6
32.558,611912.518,0.59436,-0.39744,9.83119,0,0,0.6
32.579,611912.538,0.58957,-0.39744,9.83119,0,0,0.6
32.601,611912.558,0.58957,-0.39744,9.83119,0,0,0.6
32.622,611912.578,0.58957,-0.39744,9.83119,0,0,0.6
32.642,611912.598,0.58957,-0.40223,9.83119,0,0,0.6
32.662,611912.618,0.58957,-0.40223,9.8264,0,0,0.6
32.681,611912.639,0.58957,-0.39744,9.8264,0,0,0.6
32.7,611912.659,0.58957,-0.39265,9.8264,0,0,0.6
32.72,611912.679,0.58957,-0.39265,9.83119,0,0,0.6
32.742,611912.699,0.58957,-0.39265,9.83119,0,0,0.6
32.763,611912.719,0.58478,-0.39265,9.83119,0,0,0.6
32.787,611912.739,0.58957,-0.39744,9.83119,0,0,0.6
32.801,611912.759,0.59436,-0.39744,9.8264,0,0,0.6
32.825,611912.779,0.58957,-0.39744,9.83119,0,0,0.6
32.843,611912.8,0.59436,-0.39265,9.8264,0,0,0.6
32.86,611912.82,0.59436,-0.39265,9.83119,0,0,0.6
32.882,611912.84,0.58957,-0.39744,9.83119,0,0,0.6
32.901,611912.86,0.59436,-0.39265,9.83119,0,0,0.6
32.924,611912.88,0.59436,-0.39744,9.83119,0,0,0.6
32.941,611912.9,0.59436,-0.39744,9.8264,0,0,0.6
32.962,611912.92,0.59436,-0.39744,9.8264,0,0,0.6
32.983,611912.94,0.58957,-0.39744,9.83119,0,0,0.6
33.006,611912.961,0.59436,-0.39744,9.82161,0,0,0.6
33.025,611912.981,0.58478,-0.39265,9.83119,0,0,0.6
33.046,611913.001,0.58957,-0.39744,9.8264,0,0,0.6
33.066,611913.021,0.58957,-0.39265,9.83119,0,0,0.6
33.086,611913.041,0.58478,-0.39744,9.8264,0,0,0.6
33.105,611913.061,0.58957,-0.39265,9.8264,0,0,0.6
33.125,611913.081,0.58957,-0.39265,9.83119,0,0,0.6
33.144,611913.101,0.58957,-0.39744,9.82161,0,0,0.6
33.161,611913.121,0.58478,-0.39265,9.83598,0,0,0.6
33.184,611913.142,0.58478,-0.39265,9.8264,0,0,0.6
33.205,611913.162,0.58957,-0.38786,9.8264,0,0,0.6
33.221,611913.182,0.58957,-0.39744,9.83119,0,0,0.6
33.242,611913.202,0.59436,-0.39744,9.83119,0,0,0.6
33.265,611913.222,0.59436,-0.39265,9.83119,0,0,0.6
33.287,611913.242,0.58957,-0.39744,9.8264,0,0,0.6
33.308,611913.262,0.58957,-0.39265,9.8264,0,0,0.6
33.321,611913.282,0.58478,-0.39744,9.83119,0,0,0.6
33.342,611913.303,0.58957,-0.39744,9.8264,0,0,0.6
33.364,611913.323,0.58957,-0.39744,9.83119,0,0,0.6
33.386,611913.343,0.59436,-0.39744,9.83119,0,0,0.6
33.406,611913.363,0.58478,-0.39265,9.83119,0,0,0.6
33.425,611913.383,0.58478,-0.39265,9.83119,0,0,0.6
33.446,611913.403,0.58957,-0.39265,9.8264,0,0,0.6
33.465,611913.423,0.58957,-0.38786,9.82161,0,0,0.6
33.486,611913.443,0.58957,-0.39744,9.83119,0,0,0.6
33.506,611913.464,0.58478,-0.39744,9.8264,0,0,0.6
33.525,611913.484,0.59436,-0.40223,9.83119,0,0,0.6
33.546,611913.504,0.58957,-0.39265,9.83119,0,0,0.6
33.567,611913.524,0.58957,-0.38786,9.8264,0,0,0.6
33.586,611913.544,0.58957,-0.39744,9.83119,0,0,0.6
33.648,611913.564,0.59436,-0.39265,9.8264,0,0,0.6
33.649,611913.584,0.58957,-0.39744,9.83119,0,0,0.6
33.651,611913.604,0.59915,-0.39744,9.8264,0,0,0.6
33.663,611913.624,0.58957,-0.39265,9.83119,0,0,0.6
33.685,611913.645,0.58478,-0.39744,9.8264,0,0,0.6
33.706,611913.665,0.58478,-0.39265,9.83119,0,0,0.6
33.726,611913.685,0.59436,-0.39744,9.82161,0,0,0.6
33.745,611913.705,0.58957,-0.39744,9.83119,0,0,0.6
33.768,611913.725,0.58957,-0.39744,9.8264,0,0,0.6
33.788,611913.745,0.59436,-0.39744,9.8264,0,0,0.6
33.812,611913.765,0.59436,-0.39744,9.8264,0,0,0.6
33.831,611913.785,0.58957,-0.39744,9.83119,0,0,0.6
33.848,611913.806,0.58957,-0.40223,9.82161,0,0,0.6
33.866,611913.826,0.58957,-0.39265,9.8264,0,0,0.6
33.886,611913.846,0.58957,-0.39265,9.8264,0,0,0.6
33.905,611913.866,0.59436,-0.39744,9.83119,0,0,0.6
33.925,611913.886,0.58478,-0.39744,9.82161,0,0,0.6
33.947,611913.906,0.58957,-0.39265,9.83119,0,0,0.6
33.966,611913.926,0.59436,-0.39744,9.82161,0,0,0.6
33.986,611913.946,0.58957,-0.39265,9.8264,0,0,0.6
34.009,611913.967,0.58957,-0.39265,9.83598,0,0,0.6
34.027,611913.987,0.58957,-0.39744,9.83119,0,0,0.6
34.047,611914.007,0.58957,-0.39744,9.8264,0,0,0.6
34.067,611914.027,0.58957,-0.39265,9.8264,0,0,0.6
34.086,611914.047,0.58957,-0.39744,9.83119,0,0,0.6
34.106,611914.067,0.58957,-0.39744,9.83119,0,0,0.6
34.126,611914.087,0.59436,-0.39265,9.83119,0,0,0.6
34.146,611914.107,0.58478,-0.39744,9.8264,0,0,0.6
34.166,611914.127,0.58957,-0.39265,9.82161,0,0,0.6
34.188,611914.148,0.58957,-0.40223,9.8264,0,0,0.6
34.207,611914.168,0.58957,-0.39744,9.8264,0,0,0.6
34.228,611914.188,0.58957,-0.39265,9.83119,0,0,0.6
34.247,611914.208,0.58957,-0.39265,9.8264,0,0,0.6
34.268,611914.228,0.59436,-0.39744,9.83119,0,0,0.6
34.291,611914.248,0.58478,-0.39744,9.8264,0,0,0.6
34.317,611914.268,0.58957,-0.39744,9.83119,0,0,0.6
34.326,611914.288,0.58957,-0.40223,9.83119,0,0,0.6
34.35,611914.309,0.59436,-0.38786,9.83119,0,0,0.6
34.368,611914.329,0.59436,-0.39265,9.8264,0,0,0.6
34.389,611914.349,0.59436,-0.39265,9.82161,0,0,0.6
34.41,611914.369,0.58957,-0.39744,9.8264,0,0,0.6
34.428,611914.389,0.58957,-0.39265,9.8264,0,0,0.6
34.45,611914.409,0.58957,-0.39744,9.83119,0,0,0.6
34.47,611914.429,0.58957,-0.39265,9.83119,0,0,0.6
34.49,611914.449,0.58957,-0.39265,9.8264,0,0,0.6
34.511,611914.47,0.58957,-0.39744,9.8264,0,0,0.6
34.531,611914.49,0.59436,-0.40223,9.8264,0,0,0.6
34.55,611914.51,0.59436,-0.39265,9.82161,0,0,0.6
34.569,611914.53,0.58957,-0.39744,9.82161,0,0,0.6
34.589,611914.55,0.59436,-0.40223,9.82161,0,0,0.6
34.612,611914.57,0.58478,-0.39744,9.83119,0,0,0.6
34.632,611914.59,0.58957,-0.39744,9.82161,0,0,0.6
34.653,611914.61,0.58478,-0.39744,9.8264,0,0,0.6
34.671,611914.631,0.58957,-0.39265,9.8264,0,0,0.6
34.692,611914.651,0.59436,-0.40223,9.83119,0,0,0.6
34.712,611914.671,0.58957,-0.39744,9.82161,0,0,0.6
34.731,611914.691,0.58478,-0.39744,9.8264,0,0,0.6
34.752,611914.711,0.59436,-0.39744,9.82161,0,0,0.6
34.774,611914.731,0.58957,-0.39744,9.8264,0,0,0.6
34.79,611914.751,0.58957,-0.39744,9.8264,0,0,0.6
34.81,611914.771,0.58957,-0.39744,9.82161,0,0,0.6
34.832,611914.791,0.58957,-0.39744,9.82161,0,0,0.6
34.852,611914.812,0.58478,-0.39744,9.83119,0,0,0.6
34.874,611914.832,0.59436,-0.39265,9.81683,0,0,0.6
34.894,611914.852,0.58957,-0.39265,9.82161,0,0,0.6
34.912,611914.872,0.59436,-0.39265,9.82161,0,0,0.6
34.931,611914.892,0.58478,-0.39744,9.8264,0,0,0.6
34.952,611914.912,0.58957,-0.39744,9.82161,0,0,0.6
34.972,611914.932,0.58478,-0.38786,9.81683,0,0,0.6
34.993,611914.952,0.59436,-0.39744,9.8264,0,0,0.6
35.012,611914.973,0.58957,-0.39744,9.82161,0,0,0.6
35.034,611914.993,0.59915,-0.39265,9.8264,0,0,0.6
35.052,611915.013,0.58957,-0.39744,9.82161,0,0,0.6
35.072,611915.033,0.59436,-0.39744,9.82161,0,0,0.6
35.094,611915.053,0.59436,-0.39265,9.82161,0,0,0.6
35.114,611915.073,0.58957,-0.39744,9.82161,0,0,0.6
35.136,611915.093,0.58478,-0.39744,9.82161,0,0,0.6
35.154,611915.113,0.58957,-0.39265,9.81683,0,0,0.6
35.172,611915.134,0.58957,-0.39744,9.82161,0,0,0.6
35.193,611915.154,0.58957,-0.40223,9.81683,0,0,0.6
35.213,611915.174,0.59436,-0.39744,9.8264,0,0,0.6
35.234,611915.194,0.58957,-0.39744,9.82161,0,0,0.6
35.255,611915.214,0.58957,-0.39265,9.81683,0,0,0.6
35.275,611915.234,0.59436,-0.39744,9.81683,0,0,0.6
35.296,611915.254,0.59436,-0.40223,9.82161,0,0,0.6
35.313,611915.274,0.58957,-0.39265,9.82161,0,0,0.6
35.336,611915.294,0.58957,-0.39265,9.81683,0,0,0.6
35.355,611915.315,0.58957,-0.39744,9.81683,0,0,0.6
35.377,611915.335,0.58957,-0.39744,9.82161,0,0,0.6
35.397,611915.355,0.58957,-0.39744,9.81683,0,0,0.6
35.415,611915.375,0.58957,-0.39744,9.81204,0,0,0.6
35.436,611915.395,0.59436,-0.39265,9.81683,0,0,0.6
35.456,611915.415,0.58957,-0.39265,9.81683,0,0,0.6
35.475,611915.435,0.58957,-0.39744,9.80725,0,0,0.6
35.497,611915.455,0.58957,-0.39744,9.81204,0,0,0.6
35.515,611915.476,0.58957,-0.39744,9.81683,0,0,0.6
35.536,611915.496,0.58957,-0.39265,9.81204,0,0,0.6
35.556,611915.516,0.58957,-0.39744,9.81683,0,0,0.6
35.577,611915.536,0.58957,-0.39744,9.81204,0,0,0.6
35.596,611915.556,0.58957,-0.39265,9.81683,0,0,0.6
35.634,611915.576,0.59436,-0.39265,9.81204,0,0,0.6
35.635,611915.596,0.58957,-0.39744,9.81204,0,0,0.6
35.655,611915.616,0.58957,-0.39265,9.82161,0,0,0.6
35.676,611915.637,0.58957,-0.39265,9.81204,0,0,0.6
35.697,611915.657,0.58957,-0.39744,9.81204,0,0,0.6
35.717,611915.677,0.58957,-0.39744,9.81683,0,0,0.6
35.737,611915.697,0.59436,-0.39744,9.81204,0,0,0.6
35.756,611915.717,0.59436,-0.39265,9.80725,0,0,0.6
35.777,611915.737,0.59436,-0.39744,9.81204,0,0,0.6
35.797,611915.757,0.59436,-0.39744,9.80725,0,0,0.6
35.818,611915.777,0.58957,-0.39744,9.82161,0,0,0.6
35.838,611915.797,0.59436,-0.39744,9.81204,0,0,0.6
35.857,611915.818,0.59436,-0.40223,9.81683,0,0,0.6
35.876,611915.838,0.58957,-0.38786,9.81204,0,0,0.6
35.898,611915.858,0.58957,-0.39265,9.81683,0,0,0.6
35.92,611915.878,0.58957,-0.39265,9.80725,0,0,0.6
35.94,611915.898,0.58957,-0.39744,9.81683,0,0,0.6
35.959,611915.918,0.59436,-0.39744,9.81204,0,0,0.6
35.979,611915.938,0.58957,-0.39265,9.81683,0,0,0.6
35.999,611915.958,0.58957,-0.39744,9.81204,0,0,0.6
36.02,611915.979,0.59436,-0.39744,9.81683,0,0,0.6
36.042,611915.999,0.58957,-0.39265,9.81204,0,0,0.6
36.059,611916.019,0.59436,-0.40223,9.81204,0,0,0.6
36.08,611916.039,0.59436,-0.40223,9.81204,0,0,0.6
36.099,611916.059,0.59436,-0.39744,9.81204,0,0,0.6
36.12,611916.079,0.58478,-0.39744,9.80246,0,0,0.6
36.139,611916.099,0.58957,-0.39744,9.80725,0,0,0.6
36.159,611916.119,0.58957,-0.40223,9.80725,0,0,0.6
36.179,611916.14,0.59436,-0.39265,9.80725,0,0,0.6
36.199,611916.16,0.58957,-0.39265,9.81204,0,0,0.6
36.222,611916.18,0.58957,-0.39744,9.81204,0,0,0.6
36.243,611916.2,0.58957,-0.39744,9.81204,0,0,0.6
36.264,611916.22,0.58478,-0.39265,9.81204,0,0,0.6
36.28,611916.24,0.58957,-0.39265,9.81204,0,0,0.6
36.312,611916.26,0.59436,-0.39744,9.80725,0,0,0.6
36.32,611916.28,0.59436,-0.39265,9.81204,0,0,0.6
36.34,611916.3,0.58957,-0.39744,9.81204,0,0,0.6
36.361,611916.321,0.58957,-0.39265,9.81683,0,0,0.6
36.38,611916.341,0.59436,-0.39744,9.80246,0,0,0.6
36.403,611916.361,0.58957,-0.39265,9.81204,0,0,0.6
36.422,611916.381,0.58957,-0.39265,9.81204,0,0,0.6
36.444,611916.401,0.59436,-0.39744,9.81683,0,0,0.6
36.465,611916.421,0.59436,-0.40223,9.81204,0,0,0.6
36.488,611916.441,0.58957,-0.39265,9.81204,0,0,0.6
36.508,611916.461,0.58957,-0.39265,9.80725,0,0,0.6
36.521,611916.482,0.58957,-0.39744,9.81204,0,0,0.6
36.547,611916.502,0.58957,-0.39265,9.80725,0,0,0.6
36.565,611916.522,0.59436,-0.39744,9.80725,0,0,0.6
36.584,611916.542,0.59436,-0.39744,9.81204,0,0,0.6
36.603,611916.562,0.58478,-0.40223,9.80725,0,0,0.6
36.624,611916.582,0.58478,-0.39265,9.80725,0,0,0.6
36.644,611916.602,0.59436,-0.39265,9.80725,0,0,0.6
36.667,611916.622,0.59436,-0.40223,9.80725,0,0,0.6
36.686,611916.643,0.59436,-0.39744,9.80725,0,0,0.6
36.707,611916.663,0.58957,-0.39265,9.80246,0,0,0.6
36.726,611916.683,0.58957,-0.39744,9.81204,0,0,0.6
36.747,611916.703,0.58957,-0.39744,9.80725,0,0,0.6
36.767,611916.723,0.58957,-0.39744,9.80725,0,0,0.6
36.786,611916.743,0.59436,-0.39265,9.80725,0,0,0.6
36.805,611916.763,0.59436,-0.39744,9.80725,0,0,0.6
36.823,611916.783,0.59436,-0.39744,9.80725,0,0,0.6
36.844,611916.803,0.58957,-0.39265,9.80725,0,0,0.6
36.863,611916.824,0.58957,-0.40223,9.80725,0,0,0.6
36.887,611916.844,0.58957,-0.40223,9.80725,0,0,0.6
36.903,611916.864,0.59436,-0.39744,9.81204,0,0,0.6
36.924,611916.884,0.58957,-0.39744,9.80725,0,0,0.6
36.944,611916.904,0.58957,-0.39744,9.81204,0,0,0.6
36.963,611916.924,0.58957,-0.39744,9.81204,0,0,0.6
36.985,611916.944,0.58957,-0.39265,9.80725,0,0,0.6
37.005,611916.964,0.59436,-0.39265,9.80725,0,0,0.6
37.025,611916.985,0.59436,-0.39744,9.79767,0,0,0.6
37.045,611917.005,0.58478,-0.39744,9.81204,0,0,0.6
37.065,611917.025,0.58957,-0.39744,9.81204,0,0,0.6
37.088,611917.045,0.58957,-0.39744,9.80725,0,0,0.6
37.104,611917.065,0.59436,-0.39744,9.80725,0,0,0.6
37.124,611917.085,0.58957,-0.39744,9.81204,0,0,0.6
37.146,611917.105,0.58957,-0.39744,9.80725,0,0,0.6
37.165,611917.125,0.58957,-0.40223,9.81204,0,0,0.6
37.184,611917.146,0.59436,-0.39744,9.81204,0,0,0.6
37.205,611917.166,0.58957,-0.39744,9.81204,0,0,0.6
37.225,611917.186,0.59436,-0.40223,9.80725,0,0,0.6
37.248,611917.206,0.58957,-0.40223,9.80725,0,0,0.6
37.27,611917.226,0.58957,-0.39744,9.81204,0,0,0.6
37.298,611917.246,0.58478,-0.39744,9.80725,0,0,0.6
37.307,611917.266,0.58478,-0.39744,9.81204,0,0,0.6
37.326,611917.286,0.58957,-0.40223,9.81683,0,0,0.6
37.348,611917.306,0.58957,-0.39265,9.81204,0,0,0.6
37.372,611917.327,0.59436,-0.39744,9.80246,0,0,0.6
37.389,611917.347,0.59436,-0.39744,9.80725,0,0,0.6
37.411,611917.367,0.58957,-0.39744,9.81683,0,0,0.6
37.429,611917.387,0.58957,-0.39265,9.81204,0,0,0.6
37.45,611917.407,0.59436,-0.39744,9.80246,0,0,0.6
37.47,611917.427,0.58957,-0.40223,9.81204,0,0,0.6
37.492,611917.447,0.58957,-0.39744,9.80725,0,0,0.6
37.511,611917.467,0.58957,-0.39265,9.80725,0,0,0.6
37.531,611917.488,0.58957,-0.40223,9.80725,0,0,0.6
37.55,611917.508,0.58957,-0.39744,9.81204,0,0,0.6
37.572,611917.528,0.59436,-0.39265,9.81204,0,0,0.6
37.598,611917.548,0.58957,-0.40223,9.81204,0,0,0.6
37.633,611917.568,0.58957,-0.40223,9.81204,0,0,0.6
37.635,611917.588,0.59436,-0.39744,9.80725,0,0,0.6
37.648,611917.608,0.58957,-0.39265,9.80725,0,0,0.6
37.668,611917.628,0.58957,-0.40223,9.80725,0,0,0.6
37.69,611917.649,0.58478,-0.39744,9.81204,0,0,0.6
37.71,611917.669,0.59436,-0.39265,9.80725,0,0,0.6
37.73,611917.689,0.58957,-0.39744,9.81683,0,0,0.6
37.755,611917.709,0.59436,-0.39744,9.81204,0,0,0.6
37.772,611917.729,0.58957,-0.39265,9.80725,0,0,0.6
37.792,611917.749,0.58957,-0.39744,9.81204,0,0,0.6
37.814,611917.769,0.58957,-0.39744,9.80725,0,0,0.6
37.834,611917.789,0.58957,-0.40223,9.80725,0,0,0.6
37.853,611917.809,0.58478,-0.39265,9.81204,0,0,0.6
37.872,611917.83,0.59436,-0.39265,9.81204,0,0,0.6
37.893,611917.85,0.59436,-0.39744,9.81204,0,0,0.6
37.914,611917.87,0.59436,-0.39744,9.80725,0,0,0.6
37.934,611917.89,0.58957,-0.38786,9.80725,0,0,0.6
37.954,611917.91,0.58957,-0.39744,9.80725,0,0,0.6
37.973,611917.93,0.59436,-0.39744,9.81683,0,0,0.6
37.993,611917.95,0.58957,-0.39744,9.81683,0,0,0.6
38.013,611917.97,0.59436,-0.39744,9.81204,0,0,0.6
38.032,611917.991,0.58957,-0.39265,9.81204,0,0,0.6
38.053,611918.011,0.58957,-0.39265,9.81683,0,0,0.6
38.071,611918.031,0.58957,-0.39744,9.81204,0,0,0.6
38.093,611918.051,0.58478,-0.39265,9.81204,0,0,0.6
38.112,611918.071,0.58957,-0.39744,9.80725,0,0,0.6
38.134,611918.091,0.58957,-0.39744,9.81204,0,0,0.6
38.154,611918.111,0.58957,-0.39744,9.80725,0,0,0.6
38.172,611918.131,0.59436,-0.39265,9.81683,0,0,0.6
38.194,611918.152,0.59436,-0.40223,9.81204,0,0,0.6
38.211,611918.172,0.58957,-0.39265,9.81204,0,0,0.6
38.231,611918.192,0.58957,-0.39744,9.81683,0,0,0.6
38.255,611918.212,0.58478,-0.39744,9.81204,0,0,0.6
38.276,611918.232,0.58478,-0.39744,9.81204,0,0,0.6
38.295,611918.252,0.58957,-0.39265,9.81683,0,0,0.6
38.32,611918.272,0.59915,-0.39265,9.82161,0,0,0.6
38.334,611918.292,0.58957,-0.39744,9.81683,0,0,0.6
38.351,611918.313,0.58957,-0.39265,9.82161,0,0,0.6
38.372,611918.333,0.58957,-0.39265,9.81204,0,0,0.6
38.392,611918.353,0.59436,-0.39744,9.81683,0,0,0.6
38.412,611918.373,0.58957,-0.40223,9.81204,0,0,0.6
38.433,611918.393,0.58957,-0.39265,9.81683,0,0,0.6
38.453,611918.413,0.58478,-0.39744,9.81204,0,0,0.6
38.474,611918.433,0.59436,-0.39744,9.81683,0,0,0.6
38.496,611918.453,0.59436,-0.39744,9.81204,0,0,0.6
38.514,611918.473,0.58957,-0.39744,9.81204,0,0,0.6
38.538,611918.494,0.58957,-0.39265,9.81204,0,0,0.6
38.557,611918.514,0.58957,-0.39265,9.82161,0,0,0.6
38.578,611918.534,0.58478,-0.39265,9.80725,0,0,0.6
38.597,611918.554,0.59436,-0.39265,9.82161,0,0,0.6
38.617,611918.574,0.59436,-0.39744,9.81204,0,0,0.6
38.636,611918.594,0.59436,-0.40223,9.81204,0,0,0.6
38.657,611918.614,0.59436,-0.39744,9.81683,0,0,0.6
38.677,611918.634,0.59436,-0.39265,9.81204,0,0,0.6
38.7,611918.655,0.58957,-0.39265,9.81683,0,0,0.6
38.717,611918.675,0.58957,-0.39265,9.81683,0,0,0.6
38.739,611918.695,0.58478,-0.39265,9.82161,0,0,0.6
38.759,611918.715,0.58957,-0.39265,9.81204,0,0,0.6
38.776,611918.735,0.59436,-0.40223,9.82161,0,0,0.6
38.799,611918.755,0.58957,-0.39744,9.81204,0,0,0.6
38.818,611918.775,0.59436,-0.39744,9.81683,0,0,0.6
38.836,611918.795,0.59915,-0.39744,9.81204,0,0,0.6
38.856,611918.816,0.58957,-0.40223,9.81683,0,0,0.6
38.876,611918.836,0.58957,-0.39744,9.81204,0,0,0.6
38.901,611918.856,0.58478,-0.39744,9.81204,0,0,0.6
38.917,611918.876,0.58957,-0.39265,9.81683,0,0,0.6
38.939,611918.896,0.58957,-0.39744,9.81683,0,0,0.6
38.96,611918.916,0.58957,-0.39265,9.80725,0,0,0.6
38.979,611918.936,0.59436,-0.39265,9.81683,0,0,0.6
39.0,611918.956,0.58957,-0.39744,9.81683,0,0,0.6
39.021,611918.976,0.58957,-0.39265,9.81683,0,0,0.6
39.04,611918.997,0.58478,-0.39265,9.81683,0,0,0.6
39.061,611919.017,0.58957,-0.39744,9.81683,0,0,0.6
39.079,611919.037,0.59436,-0.39265,9.81683,0,0,0.6
39.1,611919.057,0.58957,-0.39744,9.82161,0,0,0.6
39.124,611919.077,0.58957,-0.39744,9.81204,0,0,0.6
39.143,611919.097,0.58957,-0.39744,9.82161,0,0,0.6
39.159,611919.117,0.59436,-0.39265,9.81683,0,0,0.6
39.18,611919.137,0.59436,-0.39744,9.82161,0,0,0.6
39.198,611919.158,0.58957,-0.39744,9.82161,0,0,0.6
39.219,611919.178,0.58957,-0.39744,9.82161,0,0,0.6
39.241,611919.198,0.58957,-0.39744,9.8264,0,0,0.6
39.26,611919.218,0.58957,-0.38786,9.82161,0,0,0.6
39.281,611919.238,0.58957,-0.39744,9.81683,0,0,0.6
39.298,611919.258,0.58957,-0.39744,9.81204,0,0,0.6
39.318,611919.278,0.58957,-0.39744,9.8264,0,0,0.6
39.337,611919.298,0.58957,-0.39265,9.81683,0,0,0.6
39.36,611919.319,0.59436,-0.39744,9.82161,0,0,0.6
39.383,611919.339,0.59436,-0.40223,9.81683,0,0,0.6
39.401,611919.359,0.59436,-0.39265,9.8264,0,0,0.6
39.421,611919.379,0.59436,-0.39265,9.81683,0,0,0.6
39.441,611919.399,0.58957,-0.39744,9.82161,0,0,0.6
39.463,611919.419,0.58957,-0.39265,9.81683,0,0,0.6
39.483,611919.439,0.58478,-0.39265,9.82161,0,0,0.6
39.503,611919.459,0.58957,-0.39744,9.81683,0,0,0.6
39.523,611919.479,0.58957,-0.40223,9.82161,0,0,0.6
39.543,611919.5,0.58957,-0.39265,9.81683,0,0,0.6
39.564,611919.52,0.58478,-0.39744,9.82161,0,0,0.6
39.584,611919.54,0.58957,-0.39744,9.81683,0,0,0.6
39.604,611919.56,0.58957,-0.39265,9.82161,0,0,0.6
39.642,611919.58,0.58957,-0.39265,9.81683,0,0,0.6
39.642,611919.6,0.59436,-0.39744,9.82161,0,0,0.6
39.659,611919.62,0.58957,-0.39744,9.81683,0,0,0.6
39.683,611919.64,0.58957,-0.39744,9.82161,0,0,0.6
39.704,611919.661,0.58478,-0.39265,9.82161,0,0,0.6
39.722,611919.681,0.58478,-0.40223,9.82161,0,0,0.6
39.744,611919.701,0.59436,-0.40223,9.81683,0,0,0.6
39.764,611919.721,0.58957,-0.39744,9.8264,0,0,0.6
39.785,611919.741,0.58957,-0.40223,9.8264,0,0,0.6
39.803,611919.761,0.58957,-0.39744,9.81683,0,0,0.6
39.825,611919.781,0.58478,-0.39744,9.8264,0,0,0.6
39.843,611919.801,0.58957,-0.39744,9.82161,0,0,0.6
39.864,611919.822,0.59436,-0.39744,9.8264,0,0,0.6
39.884,611919.842,0.58957,-0.39265,9.82161,0,0,0.6
39.905,611919.862,0.58478,-0.39265,9.82161,0,0,0.6
39.928,611919.882,0.58957,-0.39265,9.82161,0,0,0.6
39.944,611919.902,0.58957,-0.39265,9.82161,0,0,0.6
39.965,611919.922,0.58478,-0.39265,9.81683,0,0,0.6
39.984,611919.942,0.59436,-0.39265,9.82161,0,0,0.6
40.005,611919.962,0.58957,-0.39744,9.82161,0,0,0.6
40.024,611919.982,0.59436,-0.39744,9.8264,0,0,0.6
40.044,611920.003,0.58957,-0.39744,9.81683,0,0,0.6
40.065,611920.023,0.59436,-0.39744,9.81683,0,0,0.6
40.084,611920.043,0.58957,-0.39744,9.81683,0,0,0.6
40.107,611920.063,0.58478,-0.39265,9.8264,0,0,0.6
40.126,611920.083,0.58957,-0.39265,9.8264,0,0,0.6
40.144,611920.103,0.58957,-0.39744,9.82161,0,0,0.6
40.165,611920.123,0.58957,-0.39744,9.82161,0,0,0.6
40.183,611920.143,0.58478,-0.39744,9.82161,0,0,0.6
40.205,611920.164,0.58957,-0.39265,9.81683,0,0,0.6
40.223,611920.184,0.58957,-0.39744,9.82161,0,0,0.6
40.244,611920.204,0.58957,-0.39265,9.82161,0,0,0.6
40.264,611920.224,0.58957,-0.39265,9.82161,0,0,0.6
40.284,611920.244,0.58957,-0.39744,9.81683,0,0,0.6
40.305,611920.264,0.59436,-0.39744,9.8264,0,0,0.6
40.325,611920.284,0.59436,-0.39265,9.81683,0,0,0.6
40.345,611920.304,0.58957,-0.39744,9.8264,0,0,0.6
40.369,611920.325,0.59436,-0.39744,9.81683,0,0,0.6
40.385,611920.345,0.59436,-0.39265,9.8264,0,0,0.6
40.405,611920.365,0.58957,-0.39744,9.81683,0,0,0.6
40.428,611920.385,0.58478,-0.39265,9.8264,0,0,0.6
40.448,611920.405,0.59436,-0.39744,9.81683,0,0,0.6
40.467,611920.425,0.59436,-0.39744,9.83119,0,0,0.6
40.485,611920.445,0.58478,-0.39265,9.82161,0,0,0.6
40.506,611920.465,0.58957,-0.39265,9.8264,0,0,0.6
40.531,611920.485,0.59436,-0.39744,9.82161,0,0,0.6
40.549,611920.506,0.59436,-0.39744,9.8264,0,0,0.6
40.569,611920.526,0.58957,-0.39744,9.82161,0,0,0.6
40.588,611920.546,0.59436,-0.39744,9.82161,0,0,0.6
40.608,611920.566,0.59436,-0.39744,9.82161,0,0,0.6
40.627,611920.586,0.59436,-0.39265,9.82161,0,0,0.6
40.647,611920.606,0.58478,-0.39265,9.8264,0,0,0.6
40.669,611920.626,0.58957,-0.39744,9.8264,0,0,0.6
40.69,611920.646,0.58957,-0.39744,9.82161,0,0,0.6
40.707,611920.667,0.58957,-0.39744,9.82161,0,0,0.6
40.728,611920.687,0.58957,-0.39744,9.8264,0,0,0.6
40.748,611920.707,0.58957,-0.39744,9.8264,0,0,0.6
40.767,611920.727,0.59436,-0.39265,9.82161,0,0,0.6
40.791,611920.747,0.58957,-0.39265,9.8264,0,0,0.6
40.808,611920.767,0.58957,-0.39265,9.8264,0,0,0.6
40.828,611920.787,0.58957,-0.39744,9.81683,0,0,0.6
40.848,611920.807,0.59436,-0.39744,9.82161,0,0,0.6
40.868,611920.828,0.58478,-0.40223,9.82161,0,0,0.6
40.888,611920.848,0.59915,-0.39744,9.8264,0,0,0.6
40.912,611920.868,0.59436,-0.39744,9.83119,0,0,0.6
40.932,611920.888,0.58957,-0.39744,9.8264,0,0,0.6
40.951,611920.908,0.58478,-0.39265,9.82161,0,0,0.6
40.972,611920.928,0.58957,-0.39265,9.8264,0,0,0.6
40.99,611920.948,0.59436,-0.39744,9.8264,0,0,0.6
41.013,611920.968,0.58957,-0.40223,9.82161,0,0,0.6
41.031,611920.989,0.59915,-0.39744,9.82161,0,0,0.6
41.053,611921.009,0.58478,-0.39744,9.82161,0,0,0.6
41.071,611921.029,0.58957,-0.39744,9.83119,0,0,0.6
41.094,611921.049,0.58957,-0.39744,9.8264,0,0,0.6
41.11,611921.069,0.59436,-0.39744,9.8264,0,0,0.6
41.138,611921.089,0.58957,-0.39744,9.82161,0,0,0.6
41.149,611921.109,0.58957,-0.39744,9.82161,0,0,0.6
41.169,611921.129,0.59436,-0.39265,9.82161,0,0,0.6
41.19,611921.149,0.58957,-0.39744,9.83119,0,0,0.6
41.211,611921.17,0.58957,-0.39265,9.8264,0,0,0.6
41.23,611921.19,0.59436,-0.39265,9.8264,0,0,0.6
41.253,611921.21,0.58957,-0.39744,9.82161,0,0,0.6
41.272,611921.23,0.58957,-0.39744,9.8264,0,0,0.6
41.293,611921.25,0.58957,-0.39265,9.82161,0,0,0.6
41.314,611921.27,0.58478,-0.39265,9.82161,0,0,0.6
41.331,611921.29,0.58957,-0.39265,9.82161,0,0,0.6
41.355,611921.31,0.58957,-0.39744,9.8264,0,0,0.6
41.375,611921.331,0.58957,-0.39265,9.81683,0,0,0.6
41.394,611921.351,0.58957,-0.39744,9.83119,0,0,0.6
41.416,611921.371,0.59436,-0.40223,9.8264,0,0,0.6
41.434,611921.391,0.59436,-0.39744,9.83119,0,0,0.6
41.456,611921.411,0.58957,-0.39265,9.81683,0,0,0.6
41.474,611921.431,0.58957,-0.39744,9.8264,0,0,0.6
41.496,611921.451,0.58957,-0.39744,9.8264,0,0,0.6
41.514,611921.471,0.58957,-0.39265,9.8264,0,0,0.6
41.535,611921.492,0.58957,-0.39265,9.8264,0,0,0.6
41.556,611921.512,0.59436,-0.39744,9.8264,0,0,0.6
41.576,611921.532,0.58957,-0.39265,9.8264,0,0,0.6
41.6,611921.552,0.58957,-0.39744,9.82161,0,0,0.6
41.644,611921.572,0.58478,-0.39744,9.82161,0,0,0.6
41.645,611921.592,0.58957,-0.39744,9.8264,0,0,0.6
41.656,611921.612,0.58957,-0.39265,9.8264,0,0,0.6
41.672,611921.632,0.59436,-0.39744,9.83119,0,0,0.6
41.692,611921.652,0.58957,-0.40223,9.8264,0,0,0.6
41.712,611921.673,0.59436,-0.39744,9.82161,0,0,0.6
41.734,611921.693,0.58957,-0.39265,9.8264,0,0,0.6
41.758,611921.713,0.58478,-0.39744,9.8264,0,0,0.6
41.776,611921.733,0.58957,-0.40223,9.82161,0,0,0.6
41.796,611921.753,0.58957,-0.39744,9.83119,0,0,0.6
41.816,611921.773,0.58478,-0.39744,9.8264,0,0,0.6
41.836,611921.793,0.58957,-0.39744,9.8264,0,0,0.6
41.856,611921.813,0.59436,-0.39744,9.83119,0,0,0.6
41.877,611921.834,0.58478,-0.39744,9.8264,0,0,0.6
41.896,611921.854,0.58957,-0.39265,9.8264,0,0,0.6
41.916,611921.874,0.59436,-0.40223,9.8264,0,0,0.6
41.939,611921.894,0.58957,-0.39265,9.8264,0,0,0.6
41.959,611921.914,0.58957,-0.39265,9.82161,0,0,0.6
41.979,611921.934,0.58957,-0.38786,9.8264,0,0,0.6
41.998,611921.954,0.58957,-0.40223,9.8264,0,0,0.6
42.018,611921.974,0.58478,-0.38786,9.83119,0,0,0.6
42.039,611921.995,0.58957,-0.39265,9.82161,0,0,0.6
42.059,611922.015,0.58957,-0.40223,9.83119,0,0,0.6
42.08,611922.035,0.59436,-0.39744,9.81683,0,0,0.6
42.098,611922.055,0.58478,-0.39744,9.8264,0,0,0.6
42.118,611922.075,0.59436,-0.39744,9.8264,0,0,0.6
42.139,611922.095,0.58957,-0.40223,9.83598,0,0,0.6
42.154,611922.115,0.58957,-0.39744,9.82161,0,0,0.6
42.177,611922.135,0.58957,-0.39744,9.8264,0,0,0.6
42.2,611922.155,0.59436,-0.39744,9.83119,0,0,0.6
42.218,611922.176,0.58957,-0.39265,9.83119,0,0,0.6
42.239,611922.196,0.59436,-0.39265,9.8264,0,0,0.6
42.258,611922.216,0.58957,-0.39744,9.83598,0,0,0.6
42.279,611922.236,0.58957,-0.39744,9.8264,0,0,0.6
42.299,611922.256,0.58957,-0.39744,9.8264,0,0,0.6
42.318,611922.276,0.59436,-0.39265,9.82161,0,0,0.6
42.335,611922.296,0.58957,-0.40223,9.8264,0,0,0.6
42.358,611922.316,0.58957,-0.39744,9.83119,0,0,0.6
42.38,611922.337,0.58957,-0.39265,9.8264,0,0,0.6
42.4,611922.357,0.58957,-0.39744,9.8264,0,0,0.6
42.419,611922.377,0.58478,-0.39744,9.8264,0,0,0.6
42.441,611922.397,0.58957,-0.39744,9.82161,0,0,0.6
42.461,611922.417,0.58957,-0.39744,9.8264,0,0,0.6
42.48,611922.437,0.58957,-0.39744,9.8264,0,0,0.6
42.503,611922.457,0.58478,-0.39744,9.8264,0,0,0.6
42.522,611922.477,0.58957,-0.40223,9.83119,0,0,0.6
42.537,611922.498,0.59436,-0.39265,9.82161,0,0,0.6
42.564,611922.518,0.58957,-0.39744,9.83119,0,0,0.6
42.583,611922.538,0.59436,-0.39744,9.82161,0,0,0.6
42.604,611922.558,0.58957,-0.39744,9.8264,0,0,0.6
42.622,611922.578,0.58957,-0.38786,9.8264,0,0,0.6
42.641,611922.598,0.58957,-0.40223,9.83119,0,0,0.6
42.662,611922.618,0.58957,-0.40223,9.83119,0,0,0.6
42.682,611922.638,0.58957,-0.39265,9.8264,0,0,0.6
42.704,611922.658,0.58957,-0.39744,9.83119,0,0,0.6
42.724,611922.679,0.59436,-0.39265,9.83119,0,0,0.6
42.742,611922.699,0.58957,-0.39744,9.82161,0,0,0.6
42.762,611922.719,0.58478,-0.39744,9.8264,0,0,0.6
42.782,611922.739,0.59436,-0.39744,9.8264,0,0,0.6
42.803,611922.759,0.59436,-0.39744,9.8264,0,0,0.6
42.82,611922.779,0.58957,-0.39744,9.83119,0,0,0.6
42.843,611922.799,0.58957,-0.39744,9.8264,0,0,0.6
42.861,611922.819,0.58957,-0.40223,9.8264,0,0,0.6
42.883,611922.84,0.59436,-0.39744,9.8264,0,0,0.6
42.904,611922.86,0.58957,-0.38786,9.8264,0,0,0.6
42.924,611922.88,0.59436,-0.39744,9.8264,0,0,0.6
42.942,611922.9,0.59436,-0.39744,9.83119,0,0,0.6
42.963,611922.92,0.58957,-0.39265,9.82161,0,0,0.6
42.982,611922.94,0.59436,-0.39744,9.8264,0,0,0.6
43.004,611922.96,0.59915,-0.40223,9.8264,0,0,0.6
43.021,611922.98,0.58957,-0.39265,9.83119,0,0,0.6
43.046,611923.001,0.58478,-0.39744,9.83119,0,0,0.6
43.064,611923.021,0.59436,-0.39265,9.83119,0,0,0.6
43.085,611923.041,0.59436,-0.39744,9.8264,0,0,0.6
43.104,611923.061,0.58957,-0.39744,9.8264,0,0,0.6
43.127,611923.081,0.59436,-0.39744,9.8264,0,0,0.6
43.143,611923.101,0.58957,-0.40223,9.8264,0,0,0.6
43.161,611923.121,0.58957,-0.39265,9.83119,0,0,0.6
43.185,611923.141,0.58957,-0.39265,9.83119,0,0,0.6
43.205,611923.161,0.58957,-0.39265,9.83119,0,0,0.6
43.226,611923.182,0.58957,-0.40223,9.83598,0,0,0.6
43.241,611923.202,0.58957,-0.38786,9.83119,0,0,0.6
43.264,611923.222,0.58957,-0.38786,9.8264,0,0,0.6
43.287,611923.242,0.59436,-0.40701,9.8264,0,0,0.6
43.303,611923.262,0.59436,-0.40223,9.83598,0,0,0.6
43.328,611923.282,0.58957,-0.39265,9.8264,0,0,0.6
43.344,611923.302,0.58478,-0.39265,9.83119,0,0,0.6
43.362,611923.322,0.58957,-0.39744,9.83119,0,0,0.6
43.383,611923.343,0.58957,-0.39744,9.83119,0,0,0.6
43.403,611923.363,0.58957,-0.38786,9.83119,0,0,0.6
43.423,611923.383,0.58957,-0.39265,9.83119,0,0,0.6
43.443,611923.403,0.58957,-0.39744,9.8264,0,0,0.6
43.464,611923.423,0.58957,-0.40223,9.83119,0,0,0.6
43.484,611923.443,0.58957,-0.39265,9.8264,0,0,0.6
43.506,611923.463,0.58957,-0.39744,9.83119,0,0,0.6
43.524,611923.483,0.58478,-0.39744,9.83598,0,0,0.6
43.543,611923.504,0.58957,-0.39265,9.83119,0,0,0.6
43.563,611923.524,0.58957,-0.39265,9.8264,0,0,0.6
43.584,611923.544,0.58957,-0.40223,9.83598,0,0,0.6
43.63,611923.564,0.59436,-0.39744,9.83119,0,0,0.6
43.632,611923.584,0.58957,-0.39744,9.8264,0,0,0.6
43.643,611923.604,0.58957,-0.39744,9.83598,0,0,0.6
43.666,611923.624,0.59436,-0.39744,9.83119,0,0,0.6
43.685,611923.644,0.58957,-0.39744,9.83598,0,0,0.6
43.706,611923.664,0.58957,-0.39265,9.8264,0,0,0.6
43.727,611923.685,0.58957,-0.39744,9.83119,0,0,0.6
43.747,611923.705,0.58478,-0.39744,9.83119,0,0,0.6
43.768,611923.725,0.58478,-0.39744,9.83598,0,0,0.6
43.788,611923.745,0.59915,-0.39265,9.8264,0,0,0.6
43.807,611923.765,0.58957,-0.39744,9.83119,0,0,0.6
43.827,611923.785,0.58957,-0.39744,9.83119,0,0,0.6
43.848,611923.805,0.58957,-0.39744,9.83119,0,0,0.6
43.867,611923.825,0.58478,-0.39265,9.83119,0,0,0.6
43.888,611923.846,0.58957,-0.39744,9.83119,0,0,0.6
43.906,611923.866,0.58957,-0.39744,9.83119,0,0,0.6
43.928,611923.886,0.58957,-0.39265,9.83119,0,0,0.6
43.948,611923.906,0.59436,-0.39265,9.83119,0,0,0.6
43.966,611923.926,0.59436,-0.39744,9.83119,0,0,0.6
43.986,611923.946,0.58957,-0.39744,9.83119,0,0,0.6
44.011,611923.966,0.58478,-0.39265,9.83119,0,0,0.6
44.027,611923.986,0.58478,-0.39744,9.83119,0,0,0.6
44.05,611924.007,0.58957,-0.40223,9.83598,0,0,0.6
44.071,611924.027,0.58957,-0.39744,9.83119,0,0,0.6
44.091,611924.047,0.58478,-0.39265,9.83598,0,0,0.6
44.108,611924.067,0.59436,-0.39744,9.8264,0,0,0.6
44.128,611924.087,0.59436,-0.38786,9.83598,0,0,0.6
44.147,611924.107,0.58957,-0.39744,9.83119,0,0,0.6
44.167,611924.127,0.58957,-0.39265,9.83598,0,0,0.6
44.188,611924.147,0.58957,-0.39744,9.83119,0,0,0.6
44.21,611924.168,0.58478,-0.39265,9.8264,0,0,0.6
44.23,611924.188,0.58478,-0.39744,9.83598,0,0,0.6
44.253,611924.208,0.58957,-0.39265,9.8264,0,0,0.6
44.271,611924.228,0.59436,-0.40223,9.83598,0,0,0.6
44.297,611924.248,0.58478,-0.39744,9.8264,0,0,0.6
44.311,611924.268,0.58957,-0.39265,9.83119,0,0,0.6
44.328,611924.288,0.58478,-0.39265,9.83119,0,0,0.6
44.347,611924.308,0.58957,-0.39265,9.83119,0,0,0.6
44.37,611924.328,0.58957,-0.39265,9.83119,0,0,0.6
44.391,611924.349,0.58957,-0.39744,9.83119,0,0,0.6
44.411,611924.369,0.58957,-0.39744,9.8264,0,0,0.6
44.431,611924.389,0.59436,-0.39744,9.8264,0,0,0.6
44.452,611924.409,0.59436,-0.39744,9.83119,0,0,0.6
44.47,611924.429,0.58957,-0.39744,9.83119,0,0,0.6
44.489,611924.449,0.58957,-0.39265,9.83119,0,0,0.6
44.512,611924.469,0.58957,-0.39265,9.8264,0,0,0.6
44.532,611924.489,0.58478,-0.39744,9.83119,0,0,0.6
44.554,611924.51,0.59436,-0.40223,9.8264,0,0,0.6
44.571,611924.53,0.59436,-0.39744,9.83119,0,0,0.6
44.592,611924.55,0.58957,-0.39265,9.83119,0,0,0.6
44.612,611924.57,0.58478,-0.39744,9.8264,0,0,0.6
44.632,611924.59,0.58478,-0.39744,9.83119,0,0,0.6
44.652,611924.61,0.58957,-0.39744,9.83119,0,0,0.6
44.673,611924.63,0.59436,-0.39744,9.8264,0,0,0.6
44.694,611924.65,0.58957,-0.39744,9.83119,0,0,0.6
44.714,611924.671,0.58478,-0.39744,9.8264,0,0,0.6
44.73,611924.691,0.58478,-0.39265,9.8264,0,0,0.6
44.752,611924.711,0.58957,-0.39744,9.83119,0,0,0.6
44.774,611924.731,0.58957,-0.39744,9.83119,0,0,0.6
44.791,611924.751,0.58957,-0.40223,9.83598,0,0,0.6
44.814,611924.771,0.58957,-0.39265,9.8264,0,0,0.6
44.834,611924.791,0.58478,-0.39744,9.83119,0,0,0.6
44.855,611924.811,0.58957,-0.39265,9.8264,0,0,0.6
44.871,611924.831,0.58478,-0.39744,9.83119,0,0,0.6
44.892,611924.852,0.58957,-0.39744,9.8264,0,0,0.6
44.914,611924.872,0.58478,-0.39744,9.83598,0,0,0.6
44.932,611924.892,0.59436,-0.39744,9.83119,0,0,0.6
44.954,611924.912,0.58957,-0.40223,9.8264,0,0,0.6
44.975,611924.932,0.58957,-0.39744,9.83119,0,0,0.6
44.996,611924.952,0.58957,-0.40223,9.83598,0,0,0.6
45.018,611924.972,0.58957,-0.39265,9.8264,0,0,0.6
45.037,611924.992,0.59436,-0.39744,9.83119,0,0,0.6
45.057,611925.013,0.59436,-0.39744,9.83119,0,0,0.6
45.079,611925.033,0.58957,-0.39744,9.83598,0,0,0.6
45.098,611925.053,0.58957,-0.39744,9.8264,0,0,0.6
45.117,611925.073,0.58957,-0.39744,9.8264,0,0,0.6
45.137,611925.093,0.58957,-0.39265,9.8264,0,0,0.6
45.16,611925.113,0.58957,-0.39744,9.8264,0,0,0.6
45.175,611925.133,0.58957,-0.39744,9.83119,0,0,0.6
45.193,611925.153,0.58957,-0.39744,9.8264,0,0,0.6
45.213,611925.174,0.58478,-0.39265,9.8264,0,0,0.6
45.233,611925.194,0.58957,-0.39744,9.83119,0,0,0.6
45.252,611925.214,0.58957,-0.38786,9.83598,0,0,0.6
45.276,611925.234,0.58957,-0.39744,9.83119,0,0,0.6
45.302,611925.254,0.58957,-0.39744,9.83119,0,0,0.6
45.315,611925.274,0.58478,-0.39265,9.83119,0,0,0.6
45.334,611925.294,0.58478,-0.39265,9.83119,0,0,0.6
45.359,611925.314,0.58957,-0.39265,9.8264,0,0,0.6
45.378,611925.334,0.58957,-0.39744,9.83119,0,0,0.6
45.397,611925.355,0.58478,-0.39265,9.82161,0,0,0.6
45.419,611925.375,0.58957,-0.39744,9.83119,0,0,0.6
45.439,611925.395,0.58957,-0.39744,9.8264,0,0,0.6
45.459,611925.415,0.59436,-0.39265,9.8264,0,0,0.6
45.48,611925.435,0.58957,-0.38786,9.82161,0,0,0.6
45.499,611925.455,0.59436,-0.39744,9.83598,0,0,0.6
45.516,611925.475,0.59436,-0.39744,9.83119,0,0,0.6
45.538,611925.495,0.58957,-0.39744,9.83119,0,0,0.6
45.558,611925.516,0.58957,-0.39744,9.83119,0,0,0.6
45.577,611925.536,0.58478,-0.39744,9.8264,0,0,0.6
45.597,611925.556,0.58478,-0.40223,9.83119,0,0,0.6
45.636,611925.576,0.58957,-0.39744,9.8264,0,0,0.6
45.639,611925.596,0.59436,-0.39744,9.8264,0,0,0.6
45.656,611925.616,0.58957,-0.39744,9.8264,0,0,0.6
45.678,611925.636,0.59436,-0.39265,9.83119,0,0,0.6
45.698,611925.656,0.59436,-0.39265,9.8264,0,0,0.6
45.716,611925.677,0.58957,-0.40223,9.8264,0,0,0.6
45.738,611925.697,0.58957,-0.39744,9.8264,0,0,0.6
45.76,611925.717,0.58478,-0.39744,9.83119,0,0,0.6
45.778,611925.737,0.59436,-0.39744,9.83119,0,0,0.6
45.798,611925.757,0.59436,-0.39744,9.8264,0,0,0.6
45.818,611925.777,0.58478,-0.40223,9.8264,0,0,0.6
45.839,611925.797,0.58478,-0.39744,9.8264,0,0,0.6
45.861,611925.817,0.58957,-0.39744,9.82161,0,0,0.6
45.881,611925.837,0.58478,-0.39744,9.83119,0,0,0.6
45.899,611925.858,0.59436,-0.39744,9.83119,0,0,0.6
45.921,611925.878,0.59436,-0.39265,9.83119,0,0,0.6
45.938,611925.898,0.58957,-0.39744,9.8264,0,0,0.6
45.96,611925.918,0.58957,-0.40223,9.8264,0,0,0.6
45.98,611925.938,0.58957,-0.38786,9.8264,0,0,0.6
46.003,611925.958,0.58957,-0.39265,9.8264,0,0,0.6
46.021,611925.978,0.58957,-0.39744,9.83119,0,0,0.6
46.04,611925.998,0.58957,-0.39744,9.8264,0,0,0.6
46.061,611926.019,0.58957,-0.39265,9.83119,0,0,0.6
46.081,611926.039,0.58957,-0.39265,9.82161,0,0,0.6
46.1,611926.059,0.58478,-0.39744,9.8264,0,0,0.6
46.122,611926.079,0.59436,-0.39265,9.83119,0,0,0.6
46.141,611926.099,0.58957,-0.39744,9.83119,0,0,0.6
46.161,611926.119,0.58957,-0.39744,9.8264,0,0,0.6
46.181,611926.139,0.58957,-0.39265,9.8264,0,0,0.6
46.202,611926.159,0.58957,-0.39744,9.83119,0,0,0.6
46.223,611926.18,0.59436,-0.39744,9.8264,0,0,0.6
46.243,611926.2,0.58957,-0.39744,9.83119,0,0,0.6
46.264,611926.22,0.58957,-0.39744,9.83119,0,0,0.6
46.286,611926.24,0.58478,-0.39265,9.8264,0,0,0.6
46.318,611926.26,0.58957,-0.39744,9.83119,0,0,0.6
46.328,611926.28,0.58957,-0.39744,9.83119,0,0,0.6
46.343,611926.3,0.59436,-0.39744,9.83119,0,0,0.6
46.363,611926.32,0.58957,-0.39744,9.83119,0,0,0.6
46.382,611926.34,0.58957,-0.40223,9.8264,0,0,0.6
46.401,611926.361,0.58957,-0.39265,9.82161,0,0,0.6
46.422,611926.381,0.58957,-0.39265,9.8264,0,0,0.6
46.445,611926.401,0.58478,-0.39744,9.83119,0,0,0.6
46.463,611926.421,0.58957,-0.39265,9.83119,0,0,0.6
46.483,611926.441,0.58957,-0.38786,9.83119,0,0,0.6
46.504,611926.461,0.58957,-0.39744,9.83119,0,0,0.6
46.525,611926.481,0.58478,-0.39744,9.8264,0,0,0.6
46.546,611926.501,0.59436,-0.39744,9.83598,0,0,0.6
46.567,611926.522,0.59436,-0.39265,9.82161,0,0,0.6
46.583,611926.542,0.58957,-0.39265,9.8264,0,0,0.6
46.603,611926.562,0.58957,-0.39744,9.8264,0,0,0.6
46.624,611926.582,0.58957,-0.39265,9.83119,0,0,0.6
46.648,611926.602,0.58957,-0.39744,9.82161,0,0,0.6
46.666,611926.622,0.58957,-0.39265,9.8264,0,0,0.6
46.685,611926.642,0.58957,-0.39265,9.8264,0,0,0.6
46.706,611926.662,0.58478,-0.39744,9.83119,0,0,0.6
46.726,611926.683,0.58478,-0.39744,9.8264,0,0,0.6
46.746,611926.703,0.59436,-0.40223,9.83119,0,0,0.6
46.766,611926.723,0.58957,-0.39265,9.83119,0,0,0.6
46.786,611926.743,0.58957,-0.39744,9.83598,0,0,0.6
46.806,611926.763,0.58957,-0.39744,9.8264,0,0,0.6
46.825,611926.783,0.58957,-0.39265,9.8264,0,0,0.6
46.847,611926.803,0.59436,-0.39265,9.8264,0,0,0.6
46.864,611926.823,0.59436,-0.39744,9.83119,0,0,0.6
46.883,611926.843,0.59436,-0.39744,9.8264,0,0,0.6
46.904,611926.864,0.58957,-0.39744,9.8264,0,0,0.6
46.924,611926.884,0.58957,-0.39265,9.83598,0,0,0.6
46.944,611926.904,0.58957,-0.39265,9.8264,0,0,0.6
46.964,611926.924,0.59436,-0.39265,9.8264,0,0,0.6
46.985,611926.944,0.58957,-0.39265,9.83598,0,0,0.6
47.004,611926.964,0.58957,-0.39265,9.8264,0,0,0.6
47.025,611926.984,0.58957,-0.39744,9.83119,0,0,0.6
47.047,611927.004,0.58957,-0.39744,9.83598,0,0,0.6
47.064,611927.025,0.58957,-0.40223,9.83119,0,0,0.6
47.085,611927.045,0.59436,-0.40223,9.83598,0,0,0.6
47.106,611927.065,0.58957,-0.39744,9.8264,0,0,0.6
47.126,611927.085,0.58957,-0.39744,9.83119,0,0,0.6
47.149,611927.105,0.58957,-0.39744,9.83119,0,0,0.6
47.167,611927.125,0.58478,-0.39744,9.8264,0,0,0.6
47.185,611927.145,0.58957,-0.39744,9.83119,0,0,0.6
47.208,611927.165,0.58957,-0.39744,9.83598,0,0,0.6
47.227,611927.186,0.58957,-0.39265,9.8264,0,0,0.6
47.247,611927.206,0.58478,-0.39744,9.83119,0,0,0.6
47.27,611927.226,0.58957,-0.39744,9.8264,0,0,0.6
47.288,611927.246,0.58478,-0.39744,9.83119,0,0,0.6
47.308,611927.266,0.59436,-0.39744,9.82161,0,0,0.6
47.325,611927.286,0.58957,-0.39744,9.83119,0,0,0.6
47.345,611927.306,0.58478,-0.39744,9.8264,0,0,0.6
47.367,611927.326,0.58957,-0.39744,9.8264,0,0,0.6
47.388,611927.347,0.58478,-0.39744,9.8264,0,0,0.6
47.41,611927.367,0.58478,-0.39265,9.83119,0,0,0.6
47.427,611927.387,0.58957,-0.39744,9.83119,0,0,0.6
47.451,611927.407,0.59436,-0.39744,9.83119,0,0,0.6
47.472,611927.427,0.58957,-0.39744,9.8264,0,0,0.6
47.491,611927.447,0.58957,-0.39265,9.8264,0,0,0.6
47.51,611927.467,0.58957,-0.39744,9.83119,0,0,0.6
47.53,611927.487,0.59436,-0.39265,9.83119,0,0,0.6
47.551,611927.507,0.58957,-0.39744,9.8264,0,0,0.6
47.57,611927.528,0.58957,-0.39744,9.83598,0,0,0.6
47.597,611927.548,0.58957,-0.39744,9.8264,0,0,0.6
47.644,611927.568,0.59436,-0.39265,9.83119,0,0,0.6
47.646,611927.588,0.58957,-0.39265,9.83119,0,0,0.6
47.648,611927.608,0.59436,-0.40223,9.83119,0,0,0.6
47.668,611927.628,0.58957,-0.39744,9.8264,0,0,0.6
47.69,611927.648,0.58957,-0.39265,9.8264,0,0,0.6
47.71,611927.668,0.58957,-0.39744,9.8264,0,0,0.6
47.73,611927.689,0.58957,-0.39744,9.83119,0,0,0.6
47.749,611927.709,0.59436,-0.39744,9.8264,0,0,0.6
47.771,611927.729,0.58957,-0.39744,9.83119,0,0,0.6
47.792,611927.749,0.59436,-0.39744,9.8264,0,0,0.6
47.809,611927.769,0.59436,-0.39744,9.83119,0,0,0.6
47.834,611927.789,0.58957,-0.39265,9.8264,0,0,0.6
47.853,611927.809,0.58957,-0.39265,9.8264,0,0,0.6
47.871,611927.829,0.58957,-0.39744,9.83598,0,0,0.6
47.891,611927.85,0.58478,-0.39744,9.8264,0,0,0.6
47.911,611927.87,0.59436,-0.39744,9.83119,0,0,0.6
47.93,611927.89,0.59436,-0.39744,9.8264,0,0,0.6
47.95,611927.91,0.58957,-0.39265,9.83598,0,0,0.6
