AppTimestamp(s),SensorTimestamp(s),Acc_X,Acc_Y,Acc_Z,Label,Latitude,Longitude
0.047,2735683.18,0.03141,0.0317,9.41037,9,4.8,6
0.048,2735683.199,0.00748,0.05833,9.17588,9,4.8,6
0.049,2735683.218,0.00748,-0.00179,9.89402,9,4.8,6
0.05,2735683.237,0.05533,-0.0329,10.34417,9,4.8,6
0.069,2735683.256,0.04576,-0.05683,10.40399,9,4.8,6
0.089,2735683.275,0.01466,-0.00897,9.75045,9,4.8,6
0.107,2735683.294,0.05294,0.0317,10.20748,9,4.8,6
0.123,2735683.313,-0.04038,0.01017,9.31227,9,4.8,6
0.143,2735683.332,0.01226,0.01974,9.96581,9,4.8,6
0.163,2735683.351,0.03858,0.00299,9.69542,9,4.8,6
0.185,2735683.37,0.08883,0.08943,9.68345,9,4.8,6
0.202,2735683.389,0.03619,-0.00897,9.89163,9,4.8,6
0.22,2735683.408,0.01466,-0.00658,9.89881,9,4.8,6
0.238,2735683.427,-0.02602,-0.06401,9.95863,9,4.8,6
0.257,2735683.446,-0.00688,-0.04247,9.85813,9,4.8,6
0.276,2735683.465,0.02662,-0.04965,9.78156,9,4.8,6
0.296,2735683.484,0.0338,-0.04247,9.79831,9,4.8,6
0.316,2735683.503,0.04816,-0.08315,9.91077,9,4.8,6
0.335,2735683.522,0.02423,-0.10947,10.00888,9,4.8,6
0.355,2735683.541,-0.00449,-0.11426,9.90838,9,4.8,6
0.372,2735683.56,-0.02124,-0.13101,9.88206,9,4.8,6
0.391,2735683.579,0.01944,-0.10947,9.84138,9,4.8,6
0.41,2735683.598,0.02901,-0.15733,9.89402,9,4.8,6
0.429,2735683.617,0.01466,-0.14536,9.89642,9,4.8,6
0.449,2735683.636,0.00269,-0.18604,9.83659,9,4.8,6
0.467,2735683.655,-0.00927,-0.18126,9.84138,9,4.8,6
0.487,2735683.674,0.01944,-0.19322,9.84138,9,4.8,6
0.505,2735683.693,0.01705,-0.22433,9.92991,9,4.8,6
0.524,2735683.712,0.0003,-0.26022,9.88206,9,4.8,6
0.543,2735683.731,-0.01884,-0.27218,9.94906,9,4.8,6
0.563,2735683.75,-0.00688,-0.27458,9.94906,9,4.8,6
0.581,2735683.769,-0.02363,-0.29372,9.96581,9,4.8,6
0.601,2735683.788,-0.00449,-0.28175,9.95384,9,4.8,6
0.619,2735683.807,-0.01645,-0.2985,9.91795,9,4.8,6
0.637,2735683.827,-0.02602,-0.3009,9.90599,9,4.8,6
0.657,2735683.846,-0.02363,-0.3009,9.86531,9,4.8,6
0.676,2735683.865,-0.01167,-0.29611,9.87727,9,4.8,6
0.696,2735683.884,0.00269,-0.28654,9.85334,9,4.8,6
0.715,2735683.903,0.00269,-0.30568,9.87727,9,4.8,6
0.734,2735683.922,-0.01167,-0.2985,9.88445,9,4.8,6
0.753,2735683.941,-0.01884,-0.30329,9.88206,9,4.8,6
0.772,2735683.96,-0.02363,-0.29133,9.89402,9,4.8,6
0.794,2735683.979,-0.00688,-0.30329,9.88684,9,4.8,6
0.811,2735683.998,-0.00449,-0.3009,9.87009,9,4.8,6
0.83,2735684.017,-0.00449,-0.30329,9.89163,9,4.8,6
0.847,2735684.036,-0.00449,-0.29611,9.88684,9,4.8,6
0.867,2735684.055,-0.01645,-0.31047,9.88924,9,4.8,6
0.886,2735684.074,-0.00688,-0.30568,9.84617,9,4.8,6
0.908,2735684.093,-0.00927,-0.30329,9.86052,9,4.8,6
0.923,2735684.112,-0.00688,-0.3009,9.86052,9,4.8,6
0.946,2735684.131,-0.02124,-0.31286,9.89642,9,4.8,6
0.962,2735684.15,-0.00927,-0.31047,9.90838,9,4.8,6
0.986,2735684.169,-0.01406,-0.30329,9.90599,9,4.8,6
1.003,2735684.188,-0.01167,-0.30568,9.88924,9,4.8,6
1.02,2735684.207,-0.01884,-0.30568,9.8677,9,4.8,6
1.039,2735684.226,-0.01645,-0.31047,9.86292,9,4.8,6
1.055,2735684.245,-0.00449,-0.2985,9.85334,9,4.8,6
1.075,2735684.264,-0.00927,-0.30568,9.87488,9,4.8,6
1.096,2735684.283,-0.00688,-0.30808,9.88684,9,4.8,6
1.116,2735684.302,-0.01167,-0.30808,9.89402,9,4.8,6
1.135,2735684.321,-0.01406,-0.30568,9.89642,9,4.8,6
1.154,2735684.34,-0.01167,-0.31286,9.88684,9,4.8,6
1.176,2735684.359,-0.00927,-0.3009,9.87249,9,4.8,6
1.19,2735684.378,-0.01884,-0.31525,9.86052,9,4.8,6
1.212,2735684.397,-0.01884,-0.2985,9.8677,9,4.8,6
1.229,2735684.416,-0.01645,-0.30568,9.87967,9,4.8,6
1.249,2735684.435,-0.01884,-0.31525,9.88924,9,4.8,6
1.267,2735684.454,-0.00927,-0.29611,9.9012,9,4.8,6
1.288,2735684.473,-0.01645,-0.31765,9.88206,9,4.8,6
1.305,2735684.492,-0.02602,-0.32004,9.89402,9,4.8,6
1.326,2735684.511,-0.02124,-0.31286,9.87009,9,4.8,6
1.342,2735684.53,-0.00688,-0.31047,9.87967,9,4.8,6
1.365,2735684.549,-0.00688,-0.31765,9.87009,9,4.8,6
1.382,2735684.568,-0.01406,-0.30808,9.88206,9,4.8,6
1.399,2735684.587,-0.01406,-0.31765,9.88684,9,4.8,6
1.418,2735684.606,-0.00209,-0.32243,9.89402,9,4.8,6
1.439,2735684.625,-0.01645,-0.31047,9.88684,9,4.8,6
1.459,2735684.644,-0.02602,-0.30568,9.87249,9,4.8,6
1.478,2735684.663,-0.02602,-0.29611,9.87249,9,4.8,6
1.495,2735684.682,-0.00688,-0.2985,9.88206,9,4.8,6
1.516,2735684.701,-0.01406,-0.30568,9.87249,9,4.8,6
1.538,2735684.721,-0.02363,-0.31047,9.87727,9,4.8,6
1.553,2735684.74,-0.00927,-0.31765,9.88684,9,4.8,6
1.576,2735684.759,-0.01645,-0.31765,9.88206,9,4.8,6
1.59,2735684.778,-0.02363,-0.32483,9.87727,9,4.8,6
1.608,2735684.797,-0.00927,-0.30568,9.88684,9,4.8,6
1.632,2735684.816,-0.00927,-0.30808,9.87488,9,4.8,6
1.656,2735684.835,-0.01406,-0.32722,9.88206,9,4.8,6
1.667,2735684.854,-0.01167,-0.32243,9.88684,9,4.8,6
1.686,2735684.873,-0.01884,-0.31286,9.88684,9,4.8,6
1.704,2735684.892,-0.00927,-0.31286,9.87967,9,4.8,6
1.723,2735684.911,-0.00927,-0.31525,9.88445,9,4.8,6
1.742,2735684.93,-0.01406,-0.31525,9.87249,9,4.8,6
1.761,2735684.949,-0.01406,-0.31765,9.88445,9,4.8,6
1.781,2735684.968,-0.00927,-0.30808,9.87727,9,4.8,6
1.803,2735684.987,-0.01884,-0.30568,9.87727,9,4.8,6
1.819,2735685.006,-0.02124,-0.31765,9.87727,9,4.8,6
1.839,2735685.025,-0.01406,-0.32243,9.88445,9,4.8,6
1.856,2735685.044,-0.00209,-0.32961,9.88206,9,4.8,6
1.877,2735685.063,0.0003,-0.31765,9.88445,9,4.8,6
1.893,2735685.082,-0.01884,-0.32243,9.87967,9,4.8,6
1.913,2735685.101,-0.02124,-0.32243,9.88206,9,4.8,6
1.936,2735685.12,-0.01406,-0.32004,9.87967,9,4.8,6
1.952,2735685.139,-0.00927,-0.31286,9.88206,9,4.8,6
1.971,2735685.158,-0.00209,-0.32004,9.88206,9,4.8,6
1.99,2735685.177,-0.01406,-0.30329,9.87727,9,4.8,6
2.008,2735685.196,-0.02363,-0.3009,9.88445,9,4.8,6
2.028,2735685.215,-0.01884,-0.31286,9.87727,9,4.8,6
2.062,2735685.234,-0.02363,-0.31047,9.87488,9,4.8,6
2.067,2735685.253,-0.01406,-0.32243,9.88445,9,4.8,6
2.083,2735685.272,-0.01167,-0.31525,9.89163,9,4.8,6
2.104,2735685.291,-0.01645,-0.31525,9.87727,9,4.8,6
2.123,2735685.31,-0.02363,-0.31286,9.87727,9,4.8,6
2.14,2735685.329,-0.01406,-0.32483,9.87488,9,4.8,6
2.16,2735685.348,-0.00449,-0.32243,9.87488,9,4.8,6
2.179,2735685.367,-0.01645,-0.31047,9.87967,9,4.8,6
2.198,2735685.386,-0.01884,-0.32004,9.88924,9,4.8,6
2.217,2735685.405,-0.01406,-0.31047,9.87009,9,4.8,6
2.235,2735685.424,-0.02124,-0.30568,9.88445,9,4.8,6
2.256,2735685.443,-0.01406,-0.32483,9.87727,9,4.8,6
2.275,2735685.462,-0.01167,-0.31525,9.88445,9,4.8,6
2.293,2735685.481,-0.01884,-0.30808,9.87967,9,4.8,6
2.313,2735685.5,-0.01167,-0.30808,9.88206,9,4.8,6
2.331,2735685.519,-0.01645,-0.30808,9.88445,9,4.8,6
2.351,2735685.538,-0.01645,-0.30568,9.87488,9,4.8,6
2.37,2735685.557,-0.00927,-0.31047,9.88445,9,4.8,6
2.39,2735685.576,-0.00688,-0.30808,9.88924,9,4.8,6
2.407,2735685.595,-0.01406,-0.32243,9.87727,9,4.8,6
2.426,2735685.615,-0.01406,-0.31525,9.87488,9,4.8,6
2.445,2735685.634,-0.01167,-0.31765,9.87009,9,4.8,6
2.464,2735685.653,-0.02124,-0.32243,9.88684,9,4.8,6
2.487,2735685.672,-0.01406,-0.32004,9.87488,9,4.8,6
2.504,2735685.691,-0.00209,-0.32483,9.88206,9,4.8,6
2.522,2735685.71,-0.01167,-0.31765,9.87249,9,4.8,6
2.54,2735685.729,-0.02363,-0.30808,9.88445,9,4.8,6
2.559,2735685.748,-0.02363,-0.31765,9.88206,9,4.8,6
2.583,2735685.767,-0.03081,-0.31525,9.88206,9,4.8,6
2.601,2735685.786,-0.01167,-0.31525,9.88445,9,4.8,6
2.617,2735685.805,-0.01406,-0.31286,9.87488,9,4.8,6
2.637,2735685.824,0.00987,-0.31525,9.87967,9,4.8,6
2.656,2735685.843,-0.02124,-0.31286,9.87727,9,4.8,6
2.676,2735685.862,-0.02124,-0.31286,9.88206,9,4.8,6
2.694,2735685.881,-0.01645,-0.31765,9.8677,9,4.8,6
2.714,2735685.9,-0.01167,-0.30808,9.87488,9,4.8,6
2.732,2735685.919,0.00269,-0.31765,9.88206,9,4.8,6
2.75,2735685.938,-0.00449,-0.31765,9.87967,9,4.8,6
2.774,2735685.957,-0.02363,-0.32004,9.87488,9,4.8,6
2.79,2735685.976,-0.01884,-0.32004,9.87727,9,4.8,6
2.81,2735685.995,-0.01167,-0.32004,9.88445,9,4.8,6
2.826,2735686.014,-0.01167,-0.31286,9.87488,9,4.8,6
2.847,2735686.033,-0.01645,-0.32722,9.88206,9,4.8,6
2.864,2735686.052,-0.02124,-0.31525,9.87488,9,4.8,6
2.884,2735686.071,-0.00688,-0.31047,9.87488,9,4.8,6
2.902,2735686.09,-0.00927,-0.31286,9.88924,9,4.8,6
2.923,2735686.109,-0.01406,-0.31525,9.88206,9,4.8,6
2.94,2735686.128,-0.01167,-0.31047,9.87727,9,4.8,6
2.96,2735686.147,-0.01167,-0.31525,9.88445,9,4.8,6
2.979,2735686.166,-0.00688,-0.31765,9.88206,9,4.8,6
2.998,2735686.185,-0.01167,-0.32722,9.8677,9,4.8,6
3.015,2735686.204,-0.01645,-0.30329,9.87727,9,4.8,6
3.036,2735686.223,-0.01645,-0.2985,9.88206,9,4.8,6
3.054,2735686.242,-0.00688,-0.32722,9.87967,9,4.8,6
3.075,2735686.261,-0.01645,-0.32722,9.87967,9,4.8,6
3.091,2735686.28,0.0003,-0.32004,9.87967,9,4.8,6
3.111,2735686.299,-0.00449,-0.31286,9.87967,9,4.8,6
3.131,2735686.318,-0.01167,-0.31765,9.8677,9,4.8,6
3.15,2735686.337,-0.01884,-0.31765,9.87727,9,4.8,6
3.168,2735686.356,-0.01167,-0.31765,9.88924,9,4.8,6
3.189,2735686.375,-0.01645,-0.31525,9.88684,9,4.8,6
3.207,2735686.394,-0.01406,-0.31286,9.88206,9,4.8,6
3.225,2735686.413,-0.01645,-0.32243,9.87488,9,4.8,6
3.244,2735686.432,-0.01645,-0.30568,9.88206,9,4.8,6
3.263,2735686.451,-0.00688,-0.31047,9.88924,9,4.8,6
3.283,2735686.47,-0.01884,-0.32483,9.87967,9,4.8,6
3.301,2735686.489,-0.01167,-0.31286,9.88924,9,4.8,6
3.321,2735686.509,-0.01645,-0.31047,9.87967,9,4.8,6
3.339,2735686.528,-0.01645,-0.32004,9.88206,9,4.8,6
3.358,2735686.547,-0.01167,-0.31286,9.87249,9,4.8,6
3.377,2735686.566,-0.00927,-0.31765,9.88206,9,4.8,6
3.396,2735686.585,-0.01645,-0.31525,9.87249,9,4.8,6
3.415,2735686.604,-0.02124,-0.32004,9.87967,9,4.8,6
3.435,2735686.623,-0.01406,-0.31525,9.87967,9,4.8,6
3.454,2735686.642,-0.01406,-0.32483,9.87488,9,4.8,6
3.473,2735686.661,-0.02363,-0.32243,9.88206,9,4.8,6
3.492,2735686.68,-0.01406,-0.31286,9.87967,9,4.8,6
3.51,2735686.699,-0.02124,-0.31525,9.88206,9,4.8,6
3.529,2735686.718,-0.01884,-0.32722,9.88206,9,4.8,6
3.549,2735686.737,-0.01645,-0.31765,9.87249,9,4.8,6
3.572,2735686.756,-0.01884,-0.31525,9.88445,9,4.8,6
3.591,2735686.775,-0.02363,-0.31525,9.87967,9,4.8,6
3.606,2735686.794,-0.02363,-0.31525,9.87009,9,4.8,6
3.625,2735686.813,-0.01167,-0.30568,9.88206,9,4.8,6
3.666,2735686.832,-0.02124,-0.32243,9.87249,9,4.8,6
3.667,2735686.851,-0.01167,-0.32243,9.88445,9,4.8,6
3.681,2735686.87,-0.01645,-0.3009,9.87249,9,4.8,6
3.701,2735686.889,-0.01645,-0.32722,9.88924,9,4.8,6
3.722,2735686.908,-0.00688,-0.31525,9.87967,9,4.8,6
3.739,2735686.927,-0.01406,-0.31525,9.87967,9,4.8,6
3.757,2735686.946,-0.02124,-0.31047,9.87009,9,4.8,6
3.777,2735686.965,-0.02363,-0.31765,9.87967,9,4.8,6
3.795,2735686.984,-0.01645,-0.32243,9.87249,9,4.8,6
3.817,2735687.003,-0.00449,-0.31286,9.88445,9,4.8,6
3.836,2735687.022,-0.00688,-0.32722,9.88684,9,4.8,6
3.857,2735687.041,-0.01406,-0.31047,9.88684,9,4.8,6
3.874,2735687.06,-0.00927,-0.30808,9.87967,9,4.8,6
3.891,2735687.079,-0.01406,-0.31286,9.87967,9,4.8,6
3.912,2735687.098,-0.00688,-0.31525,9.87727,9,4.8,6
3.935,2735687.117,-0.01406,-0.32243,9.88684,9,4.8,6
3.951,2735687.136,-0.00927,-0.31525,9.87967,9,4.8,6
3.969,2735687.155,-0.00927,-0.32483,9.88445,9,4.8,6
3.987,2735687.174,-0.01167,-0.30568,9.87488,9,4.8,6
4.006,2735687.193,-0.00927,-0.32004,9.88206,9,4.8,6
4.028,2735687.212,-0.01645,-0.31525,9.8677,9,4.8,6
4.044,2735687.231,-0.01406,-0.31765,9.88924,9,4.8,6
4.063,2735687.25,-0.02841,-0.31286,9.8677,9,4.8,6
4.083,2735687.269,-0.02602,-0.31047,9.89402,9,4.8,6
4.101,2735687.288,-0.01884,-0.32483,9.87488,9,4.8,6
4.12,2735687.307,-0.01406,-0.32483,9.88445,9,4.8,6
4.138,2735687.326,-0.00449,-0.32722,9.87727,9,4.8,6
4.158,2735687.345,-0.02124,-0.31765,9.87727,9,4.8,6
4.177,2735687.364,-0.02363,-0.3344,9.87727,9,4.8,6
4.196,2735687.383,-0.01645,-0.31765,9.88445,9,4.8,6
4.217,2735687.403,-0.02602,-0.32243,9.87727,9,4.8,6
4.236,2735687.422,-0.01645,-0.31525,9.87727,9,4.8,6
4.253,2735687.441,-0.01884,-0.32004,9.87727,9,4.8,6
4.273,2735687.46,-0.01167,-0.31047,9.88206,9,4.8,6
4.293,2735687.479,-0.02363,-0.33679,9.88206,9,4.8,6
4.31,2735687.498,-0.01167,-0.32004,9.88445,9,4.8,6
4.33,2735687.517,-0.01167,-0.31047,9.87488,9,4.8,6
4.349,2735687.536,-0.01645,-0.32004,9.89402,9,4.8,6
4.368,2735687.555,-0.01406,-0.31286,9.87009,9,4.8,6
4.387,2735687.574,-0.01167,-0.32722,9.88445,9,4.8,6
4.406,2735687.593,-0.02363,-0.32722,9.88445,9,4.8,6
4.426,2735687.612,-0.02602,-0.32722,9.88206,9,4.8,6
4.444,2735687.631,-0.01884,-0.31765,9.88206,9,4.8,6
4.464,2735687.65,-0.00688,-0.31286,9.87488,9,4.8,6
4.487,2735687.669,-0.01884,-0.32722,9.87249,9,4.8,6
4.5,2735687.688,-0.01167,-0.31286,9.87249,9,4.8,6
4.519,2735687.707,-0.02363,-0.32483,9.88206,9,4.8,6
4.537,2735687.726,-0.00688,-0.32722,9.88206,9,4.8,6
4.559,2735687.745,-0.00927,-0.32483,9.87967,9,4.8,6
4.577,2735687.764,-0.01884,-0.32483,9.87967,9,4.8,6
4.596,2735687.783,-0.00927,-0.31765,9.88445,9,4.8,6
4.615,2735687.802,-0.02124,-0.32961,9.88206,9,4.8,6
4.637,2735687.821,-0.01645,-0.32722,9.88445,9,4.8,6
4.654,2735687.84,-0.01884,-0.32243,9.87488,9,4.8,6
4.674,2735687.859,-0.02124,-0.31525,9.88684,9,4.8,6
4.691,2735687.878,-0.01884,-0.32722,9.87967,9,4.8,6
4.709,2735687.897,-0.01406,-0.31765,9.88924,9,4.8,6
4.728,2735687.916,-0.01884,-0.31047,9.88206,9,4.8,6
4.747,2735687.935,-0.01884,-0.31525,9.87727,9,4.8,6
4.77,2735687.954,-0.01167,-0.30808,9.88206,9,4.8,6
4.788,2735687.973,-0.01884,-0.32722,9.88445,9,4.8,6
4.808,2735687.992,-0.01167,-0.32722,9.87488,9,4.8,6
4.824,2735688.011,-0.01645,-0.32483,9.88445,9,4.8,6
4.843,2735688.03,-0.01645,-0.32004,9.87488,9,4.8,6
4.862,2735688.049,-0.01167,-0.32004,9.88206,9,4.8,6
4.885,2735688.068,-0.01167,-0.32722,9.87967,9,4.8,6
4.899,2735688.087,-0.01645,-0.31286,9.87967,9,4.8,6
4.918,2735688.106,-0.02363,-0.31047,9.87967,9,4.8,6
4.936,2735688.125,-0.01645,-0.32961,9.89163,9,4.8,6
4.957,2735688.144,-0.00449,-0.31765,9.87488,9,4.8,6
4.976,2735688.163,-0.00927,-0.31765,9.88684,9,4.8,6
4.995,2735688.182,-0.00209,-0.32722,9.87249,9,4.8,6
5.015,2735688.201,-0.02363,-0.32722,9.88684,9,4.8,6
5.034,2735688.22,-0.01406,-0.31286,9.8677,9,4.8,6
5.056,2735688.239,-0.01645,-0.31765,9.88206,9,4.8,6
5.075,2735688.258,-0.01406,-0.32004,9.88206,9,4.8,6
5.089,2735688.277,-0.01167,-0.31765,9.87967,9,4.8,6
5.109,2735688.296,-0.00449,-0.32483,9.87967,9,4.8,6
5.128,2735688.316,-0.00449,-0.3009,9.88684,9,4.8,6
5.147,2735688.335,-0.02124,-0.332,9.87967,9,4.8,6
5.165,2735688.354,-0.01884,-0.30808,9.88684,9,4.8,6
5.186,2735688.373,-0.01884,-0.32243,9.8677,9,4.8,6
5.207,2735688.392,-0.01645,-0.32243,9.88684,9,4.8,6
5.227,2735688.411,-0.01167,-0.31286,9.87009,9,4.8,6
5.243,2735688.43,-0.01884,-0.32483,9.88684,9,4.8,6
5.262,2735688.449,-0.01645,-0.32483,9.87249,9,4.8,6
5.281,2735688.468,-0.01167,-0.32722,9.87967,9,4.8,6
5.299,2735688.487,-0.02363,-0.32243,9.87009,9,4.8,6
5.317,2735688.506,-0.01884,-0.32243,9.88684,9,4.8,6
5.339,2735688.525,-0.01167,-0.32961,9.88206,9,4.8,6
5.36,2735688.544,-0.01406,-0.32722,9.88684,9,4.8,6
5.378,2735688.563,-0.02124,-0.33918,9.88206,9,4.8,6
5.394,2735688.582,-0.01645,-0.31765,9.87727,9,4.8,6
5.414,2735688.601,-0.01167,-0.32004,9.89163,9,4.8,6
5.433,2735688.62,-0.02841,-0.32722,9.87488,9,4.8,6
5.455,2735688.639,-0.00927,-0.32961,9.88684,9,4.8,6
5.474,2735688.658,-0.01167,-0.32483,9.88206,9,4.8,6
5.494,2735688.677,-0.02124,-0.32722,9.87488,9,4.8,6
5.512,2735688.696,-0.01406,-0.31525,9.88206,9,4.8,6
5.527,2735688.715,-0.01406,-0.32722,9.87009,9,4.8,6
5.551,2735688.734,-0.01884,-0.32004,9.88445,9,4.8,6
5.568,2735688.753,-0.01167,-0.32004,9.87488,9,4.8,6
5.588,2735688.772,-0.01167,-0.31525,9.88206,9,4.8,6
5.604,2735688.791,-0.01884,-0.30808,9.88445,9,4.8,6
5.622,2735688.81,-0.01645,-0.31286,9.87009,9,4.8,6
5.662,2735688.829,-0.00449,-0.32722,9.87727,9,4.8,6
5.663,2735688.848,-0.00927,-0.32004,9.87488,9,4.8,6
5.679,2735688.867,-0.01884,-0.32961,9.88206,9,4.8,6
5.698,2735688.886,-0.00927,-0.31286,9.87727,9,4.8,6
5.717,2735688.905,-0.01406,-0.31765,9.87727,9,4.8,6
5.736,2735688.924,-0.01167,-0.32243,9.88206,9,4.8,6
5.755,2735688.943,-0.00688,-0.32243,9.87967,9,4.8,6
5.78,2735688.962,-0.01167,-0.32483,9.89402,9,4.8,6
5.793,2735688.981,-0.01406,-0.332,9.88445,9,4.8,6
5.814,2735689.0,-0.02363,-0.32961,9.87488,9,4.8,6
5.836,2735689.019,-0.01884,-0.332,9.88206,9,4.8,6
5.854,2735689.038,-0.01645,-0.332,9.87488,9,4.8,6
5.871,2735689.057,-0.01645,-0.31765,9.88206,9,4.8,6
5.892,2735689.076,-0.00927,-0.32004,9.87727,9,4.8,6
5.909,2735689.095,-0.02124,-0.32483,9.87967,9,4.8,6
5.927,2735689.114,-0.01884,-0.32243,9.87727,9,4.8,6
5.946,2735689.133,-0.01645,-0.31047,9.86531,9,4.8,6
5.969,2735689.152,-0.02124,-0.32722,9.87249,9,4.8,6
5.984,2735689.171,-0.01167,-0.32243,9.88206,9,4.8,6
6.005,2735689.19,-0.01645,-0.32243,9.8677,9,4.8,6
6.022,2735689.21,-0.01167,-0.32243,9.87967,9,4.8,6
6.04,2735689.229,-0.00449,-0.31286,9.88206,9,4.8,6
6.06,2735689.248,-0.00927,-0.32243,9.88445,9,4.8,6
6.08,2735689.267,-0.01406,-0.3344,9.87488,9,4.8,6
6.098,2735689.286,-0.00688,-0.32004,9.87249,9,4.8,6
6.117,2735689.305,-0.02363,-0.32243,9.88684,9,4.8,6
6.137,2735689.324,-0.01167,-0.31047,9.87727,9,4.8,6
6.156,2735689.343,-0.01167,-0.32004,9.87249,9,4.8,6
6.179,2735689.362,-0.00927,-0.31525,9.87727,9,4.8,6
6.192,2735689.381,-0.01884,-0.32483,9.87249,9,4.8,6
6.212,2735689.4,-0.01645,-0.31286,9.88684,9,4.8,6
6.234,2735689.419,-0.01884,-0.32004,9.87249,9,4.8,6
6.255,2735689.438,-0.01167,-0.32483,9.88684,9,4.8,6
6.269,2735689.457,-0.01645,-0.30808,9.87967,9,4.8,6
6.292,2735689.476,-0.01645,-0.31765,9.87488,9,4.8,6
6.312,2735689.495,-0.00688,-0.32483,9.87967,9,4.8,6
6.328,2735689.514,-0.01406,-0.31525,9.88206,9,4.8,6
6.346,2735689.533,-0.01645,-0.31047,9.87727,9,4.8,6
6.369,2735689.552,-0.01406,-0.31286,9.87249,9,4.8,6
6.384,2735689.571,-0.01406,-0.32961,9.88924,9,4.8,6
6.404,2735689.59,-0.00449,-0.32004,9.87727,9,4.8,6
6.422,2735689.609,-0.01884,-0.32722,9.87727,9,4.8,6
6.44,2735689.628,0.00269,-0.31765,9.88206,9,4.8,6
6.461,2735689.647,-0.00449,-0.32483,9.87967,9,4.8,6
6.48,2735689.666,-0.02124,-0.3344,9.87967,9,4.8,6
6.497,2735689.685,-0.02363,-0.31765,9.88445,9,4.8,6
6.517,2735689.704,-0.02124,-0.32243,9.8677,9,4.8,6
6.541,2735689.723,-0.02841,-0.31286,9.87727,9,4.8,6
6.56,2735689.742,-0.01645,-0.332,9.87009,9,4.8,6
6.577,2735689.761,-0.02602,-0.31765,9.88684,9,4.8,6
6.595,2735689.78,-0.01406,-0.32483,9.87727,9,4.8,6
6.613,2735689.799,-0.01884,-0.32722,9.87249,9,4.8,6
6.633,2735689.818,-0.01167,-0.32961,9.87488,9,4.8,6
6.655,2735689.837,-0.02363,-0.32243,9.87727,9,4.8,6
6.673,2735689.856,-0.01645,-0.32004,9.87967,9,4.8,6
6.692,2735689.875,-0.02124,-0.32961,9.87727,9,4.8,6
6.71,2735689.894,-0.01645,-0.32961,9.88924,9,4.8,6
6.725,2735689.913,-0.00927,-0.32243,9.87488,9,4.8,6
6.745,2735689.932,-0.02602,-0.32243,9.88684,9,4.8,6
6.764,2735689.951,-0.02124,-0.32722,9.87967,9,4.8,6
6.786,2735689.97,-0.01406,-0.31765,9.87488,9,4.8,6
6.805,2735689.989,-0.01406,-0.31765,9.87249,9,4.8,6
6.822,2735690.008,-0.01645,-0.3344,9.88206,9,4.8,6
6.84,2735690.027,-0.02363,-0.31765,9.88206,9,4.8,6
6.86,2735690.046,-0.01645,-0.31765,9.88445,9,4.8,6
6.879,2735690.065,-0.01167,-0.32004,9.88206,9,4.8,6
6.897,2735690.084,-0.01884,-0.32722,9.88684,9,4.8,6
6.916,2735690.104,-0.00688,-0.32483,9.87249,9,4.8,6
6.937,2735690.123,-0.01645,-0.32243,9.87967,9,4.8,6
6.955,2735690.142,-0.02363,-0.32961,9.8677,9,4.8,6
6.974,2735690.161,-0.02602,-0.31765,9.88924,9,4.8,6
6.992,2735690.18,-0.01884,-0.32243,9.87009,9,4.8,6
7.011,2735690.199,-0.01884,-0.31765,9.88684,9,4.8,6
7.034,2735690.218,-0.01406,-0.332,9.87488,9,4.8,6
7.049,2735690.237,-0.01406,-0.32722,9.88206,9,4.8,6
7.076,2735690.256,-0.01645,-0.32483,9.87967,9,4.8,6
7.087,2735690.275,-0.01167,-0.31286,9.88206,9,4.8,6
7.105,2735690.294,-0.02363,-0.31765,9.87249,9,4.8,6
7.124,2735690.313,-0.01645,-0.32722,9.88924,9,4.8,6
7.144,2735690.332,-0.00688,-0.31286,9.86531,9,4.8,6
7.164,2735690.351,-0.01645,-0.32722,9.87727,9,4.8,6
7.183,2735690.37,-0.01645,-0.32483,9.8677,9,4.8,6
7.205,2735690.389,-0.01645,-0.32483,9.88445,9,4.8,6
7.221,2735690.408,-0.01167,-0.32004,9.87009,9,4.8,6
7.239,2735690.427,-0.02124,-0.31525,9.87727,9,4.8,6
7.258,2735690.446,-0.01645,-0.32004,9.87488,9,4.8,6
7.278,2735690.465,-0.01884,-0.32004,9.87727,9,4.8,6
7.296,2735690.484,-0.02363,-0.32961,9.87488,9,4.8,6
7.315,2735690.503,-0.01884,-0.32722,9.87488,9,4.8,6
7.336,2735690.522,-0.01645,-0.32722,9.87488,9,4.8,6
7.355,2735690.541,-0.01406,-0.31286,9.87727,9,4.8,6
7.373,2735690.56,-0.01406,-0.31765,9.88445,9,4.8,6
7.392,2735690.579,-0.02363,-0.31525,9.87727,9,4.8,6
7.41,2735690.598,-0.01167,-0.32722,9.87488,9,4.8,6
7.429,2735690.617,-0.01406,-0.32243,9.87967,9,4.8,6
7.449,2735690.636,-0.02124,-0.32961,9.87488,9,4.8,6
7.471,2735690.655,-0.02602,-0.32243,9.87727,9,4.8,6
7.487,2735690.674,-0.01884,-0.31047,9.87967,9,4.8,6
7.51,2735690.693,-0.01645,-0.32961,9.87009,9,4.8,6
7.528,2735690.712,-0.01884,-0.31765,9.88684,9,4.8,6
7.544,2735690.731,-0.01645,-0.31765,9.87967,9,4.8,6
7.566,2735690.75,-0.02124,-0.31525,9.87967,9,4.8,6
7.583,2735690.769,-0.02124,-0.32722,9.87009,9,4.8,6
7.605,2735690.788,-0.01167,-0.31286,9.88445,9,4.8,6
7.62,2735690.807,-0.01167,-0.31765,9.87727,9,4.8,6
7.663,2735690.826,-0.00688,-0.32722,9.87967,9,4.8,6
7.664,2735690.845,-0.00927,-0.31765,9.87249,9,4.8,6
7.676,2735690.864,-0.01167,-0.31525,9.88206,9,4.8,6
7.696,2735690.883,-0.01406,-0.32722,9.86531,9,4.8,6
7.716,2735690.902,-0.01406,-0.32004,9.88445,9,4.8,6
7.735,2735690.921,-0.01406,-0.32483,9.87727,9,4.8,6
7.753,2735690.94,-0.02124,-0.32004,9.87967,9,4.8,6
7.775,2735690.959,-0.01406,-0.31765,9.88445,9,4.8,6
7.795,2735690.978,-0.02363,-0.30808,9.87727,9,4.8,6
7.809,2735690.998,-0.01645,-0.32243,9.88445,9,4.8,6
7.829,2735691.017,-0.00927,-0.32004,9.87967,9,4.8,6
7.853,2735691.036,-0.00927,-0.32243,9.87967,9,4.8,6
7.868,2735691.055,-0.01884,-0.332,9.87727,9,4.8,6
7.888,2735691.074,-0.01406,-0.32004,9.87727,9,4.8,6
7.907,2735691.093,-0.01645,-0.32243,9.88445,9,4.8,6
7.924,2735691.112,-0.01884,-0.32243,9.87488,9,4.8,6
7.943,2735691.131,-0.01645,-0.31047,9.88206,9,4.8,6
7.963,2735691.15,-0.01167,-0.31286,9.87967,9,4.8,6
7.985,2735691.169,-0.02124,-0.32483,9.88684,9,4.8,6
8.0,2735691.188,-0.01406,-0.32004,9.87727,9,4.8,6
8.02,2735691.207,-0.01884,-0.32483,9.88206,9,4.8,6
8.037,2735691.226,-0.02363,-0.32483,9.88684,9,4.8,6
8.059,2735691.245,-0.01645,-0.32483,9.87249,9,4.8,6
8.078,2735691.264,-0.01884,-0.31525,9.88445,9,4.8,6
8.097,2735691.283,-0.01645,-0.30808,9.87488,9,4.8,6
8.116,2735691.302,-0.01406,-0.32483,9.88445,9,4.8,6
8.135,2735691.321,-0.01167,-0.32722,9.87727,9,4.8,6
8.153,2735691.34,-0.01167,-0.32004,9.87967,9,4.8,6
8.172,2735691.359,-0.00927,-0.32243,9.88206,9,4.8,6
8.193,2735691.378,-0.01884,-0.32483,9.88206,9,4.8,6
8.213,2735691.397,-0.01406,-0.31765,9.88445,9,4.8,6
8.23,2735691.416,-0.01645,-0.30329,9.88684,9,4.8,6
8.248,2735691.435,-0.00449,-0.31525,9.87249,9,4.8,6
8.269,2735691.454,-0.01406,-0.31525,9.87009,9,4.8,6
8.288,2735691.473,-0.01645,-0.32483,9.88684,9,4.8,6
8.307,2735691.492,-0.00688,-0.32004,9.87009,9,4.8,6
8.327,2735691.511,-0.00209,-0.31525,9.88445,9,4.8,6
8.344,2735691.53,-0.01406,-0.31525,9.87249,9,4.8,6
8.363,2735691.549,-0.01406,-0.32004,9.88445,9,4.8,6
8.382,2735691.568,-0.01167,-0.32722,9.87009,9,4.8,6
8.4,2735691.587,-0.01167,-0.32961,9.87488,9,4.8,6
8.419,2735691.606,-0.01406,-0.32243,9.87249,9,4.8,6
8.436,2735691.625,-0.01645,-0.33679,9.89163,9,4.8,6
8.459,2735691.644,-0.01406,-0.32722,9.87488,9,4.8,6
8.477,2735691.663,-0.01406,-0.31047,9.88684,9,4.8,6
8.498,2735691.682,-0.01167,-0.332,9.87249,9,4.8,6
8.515,2735691.701,-0.01645,-0.33679,9.87967,9,4.8,6
8.537,2735691.72,-0.00927,-0.32004,9.87249,9,4.8,6
8.551,2735691.739,-0.01406,-0.32243,9.87488,9,4.8,6
8.576,2735691.758,-0.01884,-0.32243,9.88445,9,4.8,6
8.59,2735691.777,-0.01167,-0.32961,9.88684,9,4.8,6
8.611,2735691.796,-0.02124,-0.32004,9.87249,9,4.8,6
8.629,2735691.815,-0.01645,-0.31525,9.88924,9,4.8,6
8.647,2735691.834,-0.00688,-0.32243,9.88206,9,4.8,6
8.669,2735691.853,-0.01406,-0.32243,9.88445,9,4.8,6
8.69,2735691.872,-0.01406,-0.31765,9.87727,9,4.8,6
8.707,2735691.892,-0.01884,-0.32722,9.89402,9,4.8,6
8.723,2735691.911,-0.02124,-0.31525,9.86531,9,4.8,6
8.741,2735691.93,-0.02363,-0.32004,9.88445,9,4.8,6
8.761,2735691.949,-0.02124,-0.33679,9.87727,9,4.8,6
8.781,2735691.968,-0.02124,-0.32961,9.88206,9,4.8,6
8.798,2735691.987,-0.02363,-0.32243,9.87488,9,4.8,6
8.819,2735692.006,-0.01406,-0.32243,9.88445,9,4.8,6
8.836,2735692.025,-0.02124,-0.32483,9.88206,9,4.8,6
8.86,2735692.044,-0.02124,-0.31765,9.88445,9,4.8,6
8.876,2735692.063,-0.01884,-0.332,9.88445,9,4.8,6
8.894,2735692.082,-0.02363,-0.32961,9.87009,9,4.8,6
8.914,2735692.101,-0.01884,-0.31525,9.87727,9,4.8,6
8.932,2735692.12,-0.02602,-0.32483,9.87967,9,4.8,6
8.954,2735692.139,-0.02602,-0.31765,9.8677,9,4.8,6
8.972,2735692.158,-0.01406,-0.31286,9.87967,9,4.8,6
8.99,2735692.177,-0.01406,-0.32243,9.87488,9,4.8,6
9.011,2735692.196,-0.02363,-0.32004,9.88206,9,4.8,6
9.028,2735692.215,-0.00927,-0.32243,9.87249,9,4.8,6
9.047,2735692.234,-0.01884,-0.31765,9.87967,9,4.8,6
9.074,2735692.253,-0.02363,-0.31286,9.87967,9,4.8,6
9.084,2735692.272,-0.01884,-0.32004,9.88924,9,4.8,6
9.104,2735692.291,-0.02363,-0.31047,9.87967,9,4.8,6
9.122,2735692.31,-0.01406,-0.32243,9.87967,9,4.8,6
9.142,2735692.329,-0.01406,-0.32961,9.88445,9,4.8,6
9.161,2735692.348,-0.01167,-0.32961,9.88445,9,4.8,6
9.179,2735692.367,-0.01645,-0.332,9.88445,9,4.8,6
9.198,2735692.386,-0.01167,-0.30568,9.88206,9,4.8,6
9.217,2735692.405,-0.01884,-0.32004,9.87488,9,4.8,6
9.237,2735692.424,-0.00927,-0.32961,9.87967,9,4.8,6
9.256,2735692.443,-0.00927,-0.32243,9.88445,9,4.8,6
9.278,2735692.462,-0.01645,-0.32722,9.87009,9,4.8,6
9.293,2735692.481,-0.01406,-0.32483,9.88684,9,4.8,6
9.313,2735692.5,-0.01406,-0.32483,9.87249,9,4.8,6
9.336,2735692.519,-0.01406,-0.32243,9.88206,9,4.8,6
9.353,2735692.538,-0.02124,-0.32722,9.87249,9,4.8,6
9.373,2735692.557,-0.01645,-0.32722,9.88206,9,4.8,6
9.389,2735692.576,-0.01406,-0.31525,9.87727,9,4.8,6
9.408,2735692.595,-0.01645,-0.32004,9.88445,9,4.8,6
9.426,2735692.614,-0.02124,-0.32483,9.87009,9,4.8,6
9.449,2735692.633,-0.01406,-0.32483,9.88924,9,4.8,6
9.465,2735692.652,-0.02363,-0.31765,9.87727,9,4.8,6
9.488,2735692.671,-0.02124,-0.32243,9.88445,9,4.8,6
9.502,2735692.69,-0.01406,-0.32243,9.87727,9,4.8,6
9.522,2735692.709,-0.03081,-0.31765,9.88445,9,4.8,6
9.541,2735692.728,-0.01645,-0.31525,9.86531,9,4.8,6
9.563,2735692.747,-0.01645,-0.32483,9.88206,9,4.8,6
9.578,2735692.766,-0.01645,-0.32722,9.87488,9,4.8,6
9.597,2735692.786,-0.01884,-0.32722,9.88684,9,4.8,6
9.618,2735692.805,-0.00449,-0.32483,9.88206,9,4.8,6
9.647,2735692.824,-0.02363,-0.32004,9.87967,9,4.8,6
9.657,2735692.843,-0.01884,-0.32961,9.87488,9,4.8,6
9.675,2735692.862,-0.01406,-0.32961,9.87488,9,4.8,6
9.692,2735692.881,-0.01645,-0.332,9.87727,9,4.8,6
9.713,2735692.9,-0.00927,-0.32961,9.88445,9,4.8,6
9.731,2735692.919,-0.02124,-0.31765,9.87249,9,4.8,6
9.75,2735692.938,-0.01884,-0.32961,9.87488,9,4.8,6
9.771,2735692.957,-0.02124,-0.32243,9.87967,9,4.8,6
9.789,2735692.976,-0.01167,-0.3344,9.89163,9,4.8,6
9.808,2735692.995,-0.02124,-0.32243,9.87488,9,4.8,6
9.826,2735693.014,-0.00927,-0.31525,9.88924,9,4.8,6
9.85,2735693.033,-0.01645,-0.32722,9.87967,9,4.8,6
9.867,2735693.052,-0.01884,-0.32004,9.87727,9,4.8,6
9.887,2735693.071,-0.01645,-0.31525,9.8677,9,4.8,6
9.901,2735693.09,-0.01406,-0.32722,9.88445,9,4.8,6
9.926,2735693.109,-0.01884,-0.33679,9.87249,9,4.8,6
9.939,2735693.128,-0.02841,-0.32722,9.87488,9,4.8,6
9.96,2735693.147,-0.01167,-0.32722,9.87727,9,4.8,6
9.979,2735693.166,-0.01884,-0.32243,9.88684,9,4.8,6
9.997,2735693.185,-0.02602,-0.31765,9.88445,9,4.8,6
10.017,2735693.204,-0.02602,-0.32483,9.87967,9,4.8,6
10.036,2735693.223,-0.01167,-0.32483,9.87249,9,4.8,6
10.057,2735693.242,-0.01167,-0.32004,9.87249,9,4.8,6
10.074,2735693.261,-0.01167,-0.32483,9.88206,9,4.8,6
10.091,2735693.28,-0.01406,-0.3344,9.88206,9,4.8,6
10.112,2735693.299,-0.01167,-0.32243,9.88445,9,4.8,6
10.131,2735693.318,-0.02124,-0.31525,9.87727,9,4.8,6
10.15,2735693.337,-0.01884,-0.31286,9.88684,9,4.8,6
10.169,2735693.356,-0.02124,-0.31765,9.87249,9,4.8,6
10.188,2735693.375,-0.01406,-0.32722,9.87488,9,4.8,6
10.207,2735693.394,-0.02602,-0.3344,9.88206,9,4.8,6
10.227,2735693.413,-0.01884,-0.31765,9.88445,9,4.8,6
10.244,2735693.432,-0.01167,-0.31286,9.87967,9,4.8,6
10.264,2735693.451,-0.01167,-0.32243,9.87727,9,4.8,6
10.286,2735693.47,-0.01645,-0.32004,9.87488,9,4.8,6
10.301,2735693.489,-0.01645,-0.32004,9.88206,9,4.8,6
10.321,2735693.508,-0.01406,-0.31525,9.86531,9,4.8,6
10.338,2735693.527,-0.01645,-0.32483,9.88206,9,4.8,6
10.358,2735693.546,-0.02602,-0.332,9.87727,9,4.8,6
10.379,2735693.565,-0.00688,-0.32961,9.87488,9,4.8,6
10.396,2735693.584,-0.01167,-0.332,9.88206,9,4.8,6
10.415,2735693.603,-0.02124,-0.332,9.87967,9,4.8,6
10.439,2735693.622,-0.01167,-0.32961,9.87967,9,4.8,6
10.458,2735693.641,-0.01406,-0.32722,9.89163,9,4.8,6
10.476,2735693.66,-0.01406,-0.332,9.87249,9,4.8,6
10.495,2735693.68,-0.01884,-0.31765,9.87727,9,4.8,6
10.51,2735693.699,-0.01167,-0.32243,9.87488,9,4.8,6
10.53,2735693.718,-0.02602,-0.32243,9.87967,9,4.8,6
10.549,2735693.737,-0.01645,-0.32483,9.87488,9,4.8,6
10.572,2735693.756,-0.00688,-0.31765,9.89163,9,4.8,6
10.59,2735693.775,-0.02124,-0.332,9.87249,9,4.8,6
10.606,2735693.794,-0.01884,-0.332,9.88684,9,4.8,6
10.625,2735693.813,-0.02124,-0.3344,9.87488,9,4.8,6
10.648,2735693.832,-0.02363,-0.32722,9.88445,9,4.8,6
10.666,2735693.851,-0.01645,-0.31525,9.87249,9,4.8,6
10.684,2735693.87,-0.01167,-0.31525,9.87727,9,4.8,6
10.706,2735693.889,-0.00927,-0.31525,9.88206,9,4.8,6
10.72,2735693.908,-0.01645,-0.31525,9.87967,9,4.8,6
10.737,2735693.927,-0.02124,-0.31765,9.87249,9,4.8,6
10.757,2735693.946,-0.01645,-0.31765,9.87967,9,4.8,6
10.776,2735693.965,-0.01884,-0.32243,9.87727,9,4.8,6
10.796,2735693.984,-0.02602,-0.32483,9.88445,9,4.8,6
10.818,2735694.003,-0.01645,-0.31765,9.88445,9,4.8,6
10.836,2735694.022,-0.01645,-0.32483,9.88206,9,4.8,6
10.859,2735694.041,-0.01884,-0.32961,9.87727,9,4.8,6
10.876,2735694.06,-0.01645,-0.30568,9.87727,9,4.8,6
10.891,2735694.079,-0.00449,-0.31286,9.88445,9,4.8,6
10.91,2735694.098,-0.02124,-0.31765,9.87727,9,4.8,6
10.929,2735694.117,-0.01884,-0.31525,9.88924,9,4.8,6
10.949,2735694.136,-0.01645,-0.32722,9.87488,9,4.8,6
10.97,2735694.155,-0.01406,-0.32243,9.89163,9,4.8,6
10.989,2735694.174,-0.02124,-0.32243,9.87727,9,4.8,6
11.005,2735694.193,-0.02124,-0.32722,9.88684,9,4.8,6
11.024,2735694.212,-0.01645,-0.32004,9.87249,9,4.8,6
11.044,2735694.231,-0.01884,-0.33679,9.87727,9,4.8,6
11.064,2735694.25,-0.02124,-0.32961,9.87249,9,4.8,6
11.082,2735694.269,-0.01884,-0.32722,9.87488,9,4.8,6
11.101,2735694.288,-0.00688,-0.30568,9.87009,9,4.8,6
11.12,2735694.307,-0.02363,-0.32243,9.88445,9,4.8,6
11.137,2735694.326,-0.02124,-0.32483,9.87488,9,4.8,6
11.157,2735694.345,-0.01406,-0.31765,9.88684,9,4.8,6
11.176,2735694.364,-0.02363,-0.32722,9.88206,9,4.8,6
11.196,2735694.383,-0.02602,-0.32004,9.88206,9,4.8,6
11.216,2735694.402,-0.02363,-0.32961,9.87488,9,4.8,6
11.235,2735694.421,-0.01167,-0.32243,9.88684,9,4.8,6
11.256,2735694.44,-0.01406,-0.31765,9.88445,9,4.8,6
11.276,2735694.459,-0.01884,-0.32004,9.87727,9,4.8,6
11.297,2735694.478,-0.01406,-0.32722,9.87967,9,4.8,6
11.31,2735694.497,-0.02124,-0.32004,9.87727,9,4.8,6
11.329,2735694.516,-0.00927,-0.31765,9.87727,9,4.8,6
11.348,2735694.535,-0.02841,-0.32243,9.87249,9,4.8,6
11.371,2735694.554,-0.01167,-0.32961,9.87249,9,4.8,6
11.39,2735694.574,-0.01645,-0.32004,9.87967,9,4.8,6
11.404,2735694.593,-0.00688,-0.32004,9.87967,9,4.8,6
11.428,2735694.612,-0.00927,-0.332,9.87009,9,4.8,6
11.447,2735694.631,-0.01645,-0.32004,9.87967,9,4.8,6
11.462,2735694.65,-0.01884,-0.33679,9.87967,9,4.8,6
11.486,2735694.669,-0.01167,-0.31286,9.87967,9,4.8,6
11.501,2735694.688,-0.01406,-0.31765,9.87488,9,4.8,6
11.524,2735694.707,-0.01884,-0.32483,9.88206,9,4.8,6
11.538,2735694.726,-0.01167,-0.32004,9.87488,9,4.8,6
11.558,2735694.745,-0.01406,-0.3344,9.88445,9,4.8,6
11.578,2735694.764,-0.01884,-0.31525,9.87727,9,4.8,6
11.596,2735694.783,-0.01406,-0.31286,9.88206,9,4.8,6
11.616,2735694.802,-0.0332,-0.32722,9.87727,9,4.8,6
11.634,2735694.821,-0.01406,-0.31765,9.87727,9,4.8,6
11.651,2735694.84,-0.01406,-0.32483,9.87967,9,4.8,6
11.672,2735694.859,-0.01167,-0.32722,9.88445,9,4.8,6
11.689,2735694.878,-0.02602,-0.32483,9.87967,9,4.8,6
11.709,2735694.897,-0.02124,-0.31286,9.87727,9,4.8,6
11.728,2735694.916,-0.01406,-0.32483,9.88206,9,4.8,6
11.746,2735694.935,-0.01884,-0.32243,9.87967,9,4.8,6
11.766,2735694.954,-0.01645,-0.32243,9.88206,9,4.8,6
11.785,2735694.973,-0.01645,-0.31286,9.87249,9,4.8,6
11.804,2735694.992,-0.01645,-0.32004,9.87967,9,4.8,6
11.823,2735695.011,-0.00449,-0.32243,9.88684,9,4.8,6
11.842,2735695.03,-0.01884,-0.3344,9.87249,9,4.8,6
11.862,2735695.049,-0.01884,-0.32243,9.88206,9,4.8,6
11.879,2735695.068,-0.02124,-0.32483,9.87488,9,4.8,6
11.899,2735695.087,-0.02363,-0.3344,9.88684,9,4.8,6
11.918,2735695.106,-0.01406,-0.32004,9.87967,9,4.8,6
11.936,2735695.125,-0.00927,-0.31765,9.87488,9,4.8,6
11.955,2735695.144,-0.01884,-0.32483,9.87967,9,4.8,6
11.974,2735695.163,-0.01884,-0.32483,9.87727,9,4.8,6
11.993,2735695.182,-0.01884,-0.31525,9.87727,9,4.8,6
12.014,2735695.201,-0.01167,-0.32004,9.86531,9,4.8,6
12.032,2735695.22,-0.02841,-0.32483,9.88924,9,4.8,6
12.052,2735695.239,-0.01884,-0.32722,9.87727,9,4.8,6
12.072,2735695.258,-0.02363,-0.32722,9.88684,9,4.8,6
12.089,2735695.277,-0.01167,-0.32483,9.88445,9,4.8,6
12.107,2735695.296,-0.01645,-0.32722,9.87967,9,4.8,6
12.127,2735695.315,-0.01645,-0.3344,9.87727,9,4.8,6
12.146,2735695.334,-0.01406,-0.32243,9.88206,9,4.8,6
12.165,2735695.353,-0.00927,-0.31765,9.88206,9,4.8,6
12.184,2735695.372,-0.00209,-0.32961,9.87967,9,4.8,6
12.204,2735695.391,-0.01167,-0.34158,9.87488,9,4.8,6
12.223,2735695.41,-0.01645,-0.32004,9.88445,9,4.8,6
12.241,2735695.429,-0.00209,-0.31765,9.87967,9,4.8,6
12.26,2735695.448,-0.01167,-0.32004,9.87488,9,4.8,6
12.283,2735695.468,-0.00688,-0.32004,9.8677,9,4.8,6
12.299,2735695.487,-0.01884,-0.31765,9.88445,9,4.8,6
12.317,2735695.506,-0.00927,-0.32004,9.87727,9,4.8,6
12.336,2735695.525,-0.02124,-0.32243,9.88206,9,4.8,6
12.357,2735695.544,-0.01406,-0.32483,9.87967,9,4.8,6
12.375,2735695.563,-0.00449,-0.31525,9.88206,9,4.8,6
12.394,2735695.582,-0.02363,-0.32004,9.87488,9,4.8,6
12.413,2735695.601,-0.01884,-0.32722,9.87488,9,4.8,6
12.431,2735695.62,-0.01884,-0.32004,9.87727,9,4.8,6
12.451,2735695.639,-0.01645,-0.32961,9.87967,9,4.8,6
12.471,2735695.658,-0.02363,-0.32961,9.88684,9,4.8,6
12.488,2735695.677,-0.01645,-0.31286,9.88924,9,4.8,6
12.507,2735695.696,-0.02602,-0.32722,9.87967,9,4.8,6
12.527,2735695.715,-0.01645,-0.32483,9.87727,9,4.8,6
12.546,2735695.734,-0.00927,-0.33679,9.87249,9,4.8,6
12.564,2735695.753,-0.00927,-0.332,9.88684,9,4.8,6
12.586,2735695.772,-0.01645,-0.32961,9.87727,9,4.8,6
12.606,2735695.791,-0.02363,-0.3344,9.87967,9,4.8,6
12.622,2735695.81,-0.01406,-0.31525,9.87967,9,4.8,6
12.641,2735695.829,-0.01884,-0.31286,9.87967,9,4.8,6
12.66,2735695.848,-0.01884,-0.332,9.88684,9,4.8,6
12.679,2735695.867,-0.01167,-0.32961,9.87967,9,4.8,6
12.699,2735695.886,-0.01884,-0.332,9.87967,9,4.8,6
12.716,2735695.905,-0.01884,-0.32483,9.88445,9,4.8,6
12.737,2735695.924,-0.02124,-0.33679,9.87967,9,4.8,6
12.756,2735695.943,-0.02841,-0.32722,9.87967,9,4.8,6
12.775,2735695.962,-0.01167,-0.31525,9.87488,9,4.8,6
12.793,2735695.981,-0.01884,-0.32483,9.87967,9,4.8,6
12.812,2735696.0,-0.01406,-0.31525,9.88445,9,4.8,6
12.831,2735696.019,-0.00688,-0.32243,9.88206,9,4.8,6
12.853,2735696.038,-0.02602,-0.32243,9.87727,9,4.8,6
12.872,2735696.057,-0.01645,-0.332,9.89163,9,4.8,6
12.888,2735696.076,-0.01884,-0.33679,9.87727,9,4.8,6
12.906,2735696.095,-0.01884,-0.31525,9.88206,9,4.8,6
12.926,2735696.114,-0.02124,-0.32961,9.87727,9,4.8,6
12.945,2735696.133,-0.01884,-0.32722,9.87967,9,4.8,6
12.965,2735696.152,-0.01645,-0.32483,9.87967,9,4.8,6
12.983,2735696.171,-0.02363,-0.31525,9.88206,9,4.8,6
13.003,2735696.19,-0.01406,-0.32243,9.88445,9,4.8,6
13.021,2735696.209,-0.01406,-0.31286,9.88206,9,4.8,6
13.04,2735696.228,-0.02602,-0.32004,9.87727,9,4.8,6
13.06,2735696.247,-0.01406,-0.32004,9.87488,9,4.8,6
13.078,2735696.266,-0.01406,-0.32243,9.87249,9,4.8,6
13.097,2735696.285,-0.00449,-0.32243,9.88684,9,4.8,6
13.116,2735696.304,-0.01406,-0.332,9.87967,9,4.8,6
13.136,2735696.323,-0.03081,-0.32961,9.87967,9,4.8,6
13.155,2735696.342,-0.01884,-0.31765,9.88206,9,4.8,6
13.175,2735696.362,-0.01884,-0.32483,9.88206,9,4.8,6
13.191,2735696.381,-0.02124,-0.31047,9.87967,9,4.8,6
13.211,2735696.4,-0.01884,-0.31525,9.88206,9,4.8,6
13.231,2735696.419,-0.01884,-0.31765,9.87727,9,4.8,6
13.25,2735696.438,-0.01884,-0.31765,9.88684,9,4.8,6
13.272,2735696.457,-0.02124,-0.31286,9.88206,9,4.8,6
13.289,2735696.476,-0.02124,-0.32243,9.88445,9,4.8,6
13.308,2735696.495,-0.02124,-0.32483,9.87727,9,4.8,6
13.325,2735696.514,-0.01645,-0.32722,9.87967,9,4.8,6
13.345,2735696.533,-0.01645,-0.32483,9.88206,9,4.8,6
13.364,2735696.552,-0.01645,-0.32004,9.88445,9,4.8,6
13.386,2735696.571,-0.01884,-0.332,9.87967,9,4.8,6
13.402,2735696.59,-0.02124,-0.3344,9.88206,9,4.8,6
13.421,2735696.609,-0.01406,-0.31525,9.88206,9,4.8,6
13.439,2735696.628,-0.00927,-0.31525,9.87727,9,4.8,6
13.459,2735696.647,-0.01167,-0.32243,9.88206,9,4.8,6
13.478,2735696.666,-0.02602,-0.32722,9.87967,9,4.8,6
13.497,2735696.685,-0.02124,-0.31765,9.88445,9,4.8,6
13.517,2735696.704,-0.01406,-0.32483,9.87488,9,4.8,6
13.539,2735696.723,-0.02363,-0.32243,9.88445,9,4.8,6
13.556,2735696.742,-0.02124,-0.32483,9.88206,9,4.8,6
13.575,2735696.761,-0.01645,-0.32243,9.87967,9,4.8,6
13.591,2735696.78,-0.01645,-0.30808,9.87727,9,4.8,6
13.611,2735696.799,-0.02363,-0.32961,9.89402,9,4.8,6
13.632,2735696.818,-0.01406,-0.31765,9.87009,9,4.8,6
13.658,2735696.837,-0.02602,-0.31765,9.88206,9,4.8,6
13.667,2735696.856,-0.01406,-0.32961,9.87249,9,4.8,6
13.687,2735696.875,-0.02124,-0.31765,9.88684,9,4.8,6
13.706,2735696.894,-0.02602,-0.32004,9.87009,9,4.8,6
13.724,2735696.913,-0.02602,-0.32004,9.88924,9,4.8,6
13.744,2735696.932,-0.00927,-0.32483,9.87488,9,4.8,6
13.763,2735696.951,-0.01645,-0.32483,9.88684,9,4.8,6
13.784,2735696.97,-0.01645,-0.32004,9.87249,9,4.8,6
13.804,2735696.989,-0.02363,-0.32243,9.88924,9,4.8,6
13.822,2735697.008,-0.01406,-0.32961,9.87727,9,4.8,6
13.838,2735697.027,-0.01884,-0.32483,9.88206,9,4.8,6
13.859,2735697.046,-0.01645,-0.32961,9.88684,9,4.8,6
13.878,2735697.065,-0.01406,-0.32243,9.88445,9,4.8,6
13.896,2735697.084,-0.01406,-0.3344,9.88206,9,4.8,6
13.917,2735697.103,-0.01167,-0.32243,9.88206,9,4.8,6
13.936,2735697.122,-0.02602,-0.32961,9.87249,9,4.8,6
13.955,2735697.141,-0.01645,-0.32961,9.87488,9,4.8,6
13.976,2735697.16,-0.02841,-0.32483,9.88445,9,4.8,6
13.991,2735697.179,-0.02124,-0.31047,9.88445,9,4.8,6
14.011,2735697.198,-0.01884,-0.32961,9.87727,9,4.8,6
14.031,2735697.217,-0.00927,-0.32004,9.89163,9,4.8,6
14.053,2735697.236,-0.00449,-0.31765,9.86531,9,4.8,6
14.07,2735697.256,-0.02124,-0.30808,9.88445,9,4.8,6
14.086,2735697.275,-0.01167,-0.31286,9.87488,9,4.8,6
14.106,2735697.294,-0.01406,-0.32004,9.88684,9,4.8,6
14.123,2735697.313,-0.02363,-0.32243,9.87488,9,4.8,6
14.143,2735697.332,-0.02363,-0.332,9.89163,9,4.8,6
14.163,2735697.351,-0.01645,-0.31765,9.88206,9,4.8,6
14.182,2735697.37,-0.00449,-0.31286,9.87967,9,4.8,6
14.2,2735697.389,-0.01884,-0.32243,9.87967,9,4.8,6
14.219,2735697.408,-0.01645,-0.3344,9.88684,9,4.8,6
14.238,2735697.427,-0.00927,-0.3344,9.88206,9,4.8,6
14.258,2735697.446,-0.02363,-0.31047,9.88206,9,4.8,6
14.278,2735697.465,-0.02363,-0.32243,9.87727,9,4.8,6
14.294,2735697.484,-0.00688,-0.31525,9.89163,9,4.8,6
14.318,2735697.503,-0.01167,-0.31765,9.88206,9,4.8,6
14.335,2735697.522,-0.01406,-0.32243,9.88445,9,4.8,6
14.356,2735697.541,-0.01167,-0.31047,9.87967,9,4.8,6
14.375,2735697.56,-0.01645,-0.32483,9.88445,9,4.8,6
14.393,2735697.579,-0.02124,-0.32961,9.87727,9,4.8,6
14.409,2735697.598,-0.02124,-0.32483,9.87488,9,4.8,6
14.429,2735697.617,-0.01406,-0.32722,9.88206,9,4.8,6
14.448,2735697.636,-0.02124,-0.32243,9.87727,9,4.8,6
14.468,2735697.655,-0.01884,-0.32483,9.88445,9,4.8,6
14.486,2735697.674,-0.01884,-0.31525,9.88445,9,4.8,6
14.504,2735697.693,-0.01406,-0.32961,9.88684,9,4.8,6
14.525,2735697.712,-0.01406,-0.33918,9.88445,9,4.8,6
14.544,2735697.731,-0.02124,-0.31765,9.87488,9,4.8,6
14.563,2735697.75,-0.01645,-0.32722,9.87727,9,4.8,6
14.582,2735697.769,-0.01645,-0.32243,9.87727,9,4.8,6
14.602,2735697.788,-0.02124,-0.31765,9.88206,9,4.8,6
14.619,2735697.807,-0.01884,-0.31286,9.87727,9,4.8,6
14.639,2735697.826,-0.01645,-0.32722,9.87009,9,4.8,6
14.657,2735697.845,-0.01406,-0.31047,9.87967,9,4.8,6
14.676,2735697.864,-0.02363,-0.31765,9.87009,9,4.8,6
14.695,2735697.883,-0.02124,-0.31765,9.89163,9,4.8,6
14.716,2735697.902,-0.02124,-0.31525,9.87009,9,4.8,6
14.734,2735697.921,-0.01167,-0.33679,9.88206,9,4.8,6
14.754,2735697.94,-0.01645,-0.32961,9.87009,9,4.8,6
14.771,2735697.959,-0.01884,-0.32004,9.88206,9,4.8,6
14.799,2735697.978,-0.00209,-0.32722,9.87967,9,4.8,6
14.811,2735697.997,-0.01884,-0.31286,9.88924,9,4.8,6
14.846,2735698.016,-0.01406,-0.31765,9.87488,9,4.8,6
14.847,2735698.035,-0.00688,-0.32961,9.88684,9,4.8,6
14.866,2735698.054,-0.02124,-0.33918,9.87488,9,4.8,6
14.886,2735698.073,-0.01884,-0.32722,9.88206,9,4.8,6
14.906,2735698.092,-0.02602,-0.3344,9.87009,9,4.8,6
14.924,2735698.111,-0.01884,-0.32961,9.88445,9,4.8,6
14.944,2735698.13,-0.01884,-0.31286,9.87249,9,4.8,6
14.966,2735698.15,-0.01645,-0.32243,9.89163,9,4.8,6
14.984,2735698.169,-0.01884,-0.32722,9.87727,9,4.8,6
14.999,2735698.188,-0.02124,-0.32243,9.88445,9,4.8,6
15.019,2735698.207,-0.00927,-0.33679,9.87249,9,4.8,6
15.04,2735698.226,-0.01645,-0.32961,9.88445,9,4.8,6
15.063,2735698.245,-0.01406,-0.32722,9.87249,9,4.8,6
15.075,2735698.264,-0.01167,-0.31047,9.88206,9,4.8,6
15.095,2735698.283,-0.02124,-0.32243,9.88206,9,4.8,6
15.115,2735698.302,-0.01167,-0.31525,9.88445,9,4.8,6
15.135,2735698.321,-0.01645,-0.31286,9.87488,9,4.8,6
15.152,2735698.34,-0.02124,-0.32243,9.87249,9,4.8,6
15.17,2735698.359,-0.02124,-0.31765,9.87488,9,4.8,6
15.191,2735698.378,-0.02124,-0.32722,9.88445,9,4.8,6
15.208,2735698.397,-0.00927,-0.32483,9.87727,9,4.8,6
15.228,2735698.416,-0.02124,-0.31525,9.88206,9,4.8,6
15.247,2735698.435,-0.02363,-0.32483,9.87967,9,4.8,6
15.267,2735698.454,-0.00688,-0.31286,9.88445,9,4.8,6
15.289,2735698.473,-0.01884,-0.32243,9.87967,9,4.8,6
15.309,2735698.492,-0.01884,-0.32004,9.88684,9,4.8,6
15.324,2735698.511,-0.01884,-0.332,9.87488,9,4.8,6
15.342,2735698.53,-0.00927,-0.32722,9.88924,9,4.8,6
15.363,2735698.549,-0.02602,-0.32722,9.87488,9,4.8,6
15.386,2735698.568,-0.01884,-0.32961,9.88206,9,4.8,6
15.399,2735698.587,-0.00449,-0.31286,9.88445,9,4.8,6
15.418,2735698.606,-0.01406,-0.31765,9.87009,9,4.8,6
15.436,2735698.625,-0.02124,-0.33679,9.88684,9,4.8,6
15.458,2735698.644,-0.02602,-0.33679,9.87727,9,4.8,6
15.476,2735698.663,-0.02124,-0.32722,9.88206,9,4.8,6
15.496,2735698.682,-0.01884,-0.32483,9.87009,9,4.8,6
15.515,2735698.701,-0.01406,-0.32243,9.87249,9,4.8,6
15.535,2735698.72,-0.01645,-0.33679,9.87488,9,4.8,6
15.551,2735698.739,-0.01406,-0.32243,9.88445,9,4.8,6
15.574,2735698.758,-0.01406,-0.32722,9.88445,9,4.8,6
15.59,2735698.777,-0.00688,-0.31525,9.8677,9,4.8,6
15.613,2735698.796,-0.01406,-0.32961,9.87967,9,4.8,6
15.636,2735698.815,-0.02841,-0.3344,9.87249,9,4.8,6
15.661,2735698.834,-0.02602,-0.32961,9.87727,9,4.8,6
15.667,2735698.853,-0.01645,-0.32483,9.89163,9,4.8,6
15.684,2735698.872,-0.01167,-0.332,9.87967,9,4.8,6
15.703,2735698.891,-0.01406,-0.32961,9.88206,9,4.8,6
15.722,2735698.91,-0.02363,-0.32243,9.87727,9,4.8,6
15.741,2735698.929,-0.01645,-0.30568,9.87967,9,4.8,6
15.762,2735698.948,-0.01645,-0.32243,9.87727,9,4.8,6
15.781,2735698.967,-0.01167,-0.32243,9.88684,9,4.8,6
15.798,2735698.986,-0.02363,-0.30808,9.87727,9,4.8,6
15.816,2735699.005,-0.02124,-0.32243,9.88206,9,4.8,6
15.839,2735699.024,-0.01406,-0.32722,9.88206,9,4.8,6
15.86,2735699.044,-0.01645,-0.31525,9.89163,9,4.8,6
15.876,2735699.063,-0.02602,-0.32004,9.88445,9,4.8,6
15.894,2735699.082,-0.01406,-0.32722,9.88206,9,4.8,6
15.915,2735699.101,-0.02124,-0.32961,9.88206,9,4.8,6
15.937,2735699.12,-0.01406,-0.32483,9.88684,9,4.8,6
15.955,2735699.139,-0.01645,-0.31765,9.87488,9,4.8,6
15.971,2735699.158,-0.02602,-0.332,9.87967,9,4.8,6
15.99,2735699.177,-0.01167,-0.32004,9.87727,9,4.8,6
16.012,2735699.196,-0.01884,-0.32722,9.88206,9,4.8,6
16.027,2735699.215,-0.02124,-0.332,9.88445,9,4.8,6
16.047,2735699.234,-0.01645,-0.332,9.87967,9,4.8,6
16.073,2735699.253,-0.02841,-0.32961,9.88445,9,4.8,6
16.085,2735699.272,-0.01406,-0.32243,9.87488,9,4.8,6
16.105,2735699.291,-0.01406,-0.30808,9.88206,9,4.8,6
16.121,2735699.31,-0.02124,-0.32961,9.8677,9,4.8,6
16.14,2735699.329,-0.00927,-0.32483,9.87967,9,4.8,6
16.16,2735699.348,-0.01884,-0.32722,9.88206,9,4.8,6
16.18,2735699.367,-0.01645,-0.332,9.87967,9,4.8,6
16.198,2735699.386,-0.01167,-0.32961,9.88206,9,4.8,6
16.219,2735699.405,-0.01406,-0.32722,9.87488,9,4.8,6
16.238,2735699.424,-0.00927,-0.32961,9.88445,9,4.8,6
16.257,2735699.443,-0.01884,-0.32243,9.87967,9,4.8,6
16.278,2735699.462,-0.02124,-0.32243,9.87967,9,4.8,6
16.294,2735699.481,-0.02124,-0.33679,9.87488,9,4.8,6
16.313,2735699.5,-0.02363,-0.32961,9.87249,9,4.8,6
16.336,2735699.519,-0.02841,-0.32722,9.88684,9,4.8,6
16.355,2735699.538,-0.01406,-0.32961,9.87967,9,4.8,6
16.369,2735699.557,-0.00927,-0.32722,9.87249,9,4.8,6
16.39,2735699.576,-0.01406,-0.32961,9.87967,9,4.8,6
16.407,2735699.595,-0.03081,-0.32483,9.87967,9,4.8,6
16.427,2735699.614,-0.00927,-0.31525,9.88445,9,4.8,6
16.446,2735699.633,-0.01406,-0.32961,9.87727,9,4.8,6
16.468,2735699.652,-0.01406,-0.32961,9.88206,9,4.8,6
16.487,2735699.671,-0.02124,-0.31047,9.87488,9,4.8,6
16.504,2735699.69,-0.00927,-0.31525,9.87967,9,4.8,6
16.522,2735699.709,-0.01406,-0.32961,9.87967,9,4.8,6
16.54,2735699.728,-0.01406,-0.3344,9.87967,9,4.8,6
16.56,2735699.747,-0.02124,-0.31525,9.87488,9,4.8,6
16.584,2735699.766,-0.01406,-0.32004,9.88206,9,4.8,6
16.598,2735699.785,-0.02841,-0.332,9.88445,9,4.8,6
16.615,2735699.804,-0.01167,-0.332,9.88445,9,4.8,6
16.638,2735699.823,-0.01884,-0.32243,9.87727,9,4.8,6
16.658,2735699.842,-0.01884,-0.31525,9.87727,9,4.8,6
16.676,2735699.861,-0.02363,-0.32243,9.87488,9,4.8,6
16.694,2735699.88,-0.02124,-0.31525,9.87727,9,4.8,6
16.714,2735699.899,-0.01645,-0.31286,9.87727,9,4.8,6
16.736,2735699.918,-0.01884,-0.32004,9.87967,9,4.8,6
16.75,2735699.938,-0.00927,-0.32243,9.87488,9,4.8,6
16.773,2735699.957,-0.01167,-0.31525,9.88445,9,4.8,6
16.792,2735699.976,-0.01884,-0.3344,9.87727,9,4.8,6
16.811,2735699.995,-0.01406,-0.32722,9.87727,9,4.8,6
16.827,2735700.014,-0.01884,-0.32722,9.87967,9,4.8,6
16.845,2735700.033,-0.01884,-0.31765,9.88445,9,4.8,6
16.865,2735700.052,-0.01884,-0.33679,9.87967,9,4.8,6
16.884,2735700.071,-0.00688,-0.31765,9.86531,9,4.8,6
16.902,2735700.09,-0.01645,-0.34158,9.88445,9,4.8,6
16.925,2735700.109,-0.01884,-0.32004,9.88206,9,4.8,6
16.939,2735700.128,-0.01645,-0.32722,9.87488,9,4.8,6
16.96,2735700.147,-0.02602,-0.32722,9.88206,9,4.8,6
16.979,2735700.166,-0.02363,-0.332,9.87967,9,4.8,6
16.997,2735700.185,-0.02363,-0.32722,9.87727,9,4.8,6
17.02,2735700.204,-0.00927,-0.32243,9.88445,9,4.8,6
17.04,2735700.223,-0.01167,-0.32243,9.88206,9,4.8,6
17.063,2735700.242,-0.02363,-0.32722,9.87727,9,4.8,6
17.074,2735700.261,-0.01645,-0.32961,9.87727,9,4.8,6
17.091,2735700.28,-0.02124,-0.32483,9.87967,9,4.8,6
17.111,2735700.299,-0.02124,-0.32961,9.87967,9,4.8,6
17.13,2735700.318,-0.01167,-0.32722,9.87967,9,4.8,6
17.151,2735700.337,-0.01167,-0.32243,9.88684,9,4.8,6
17.169,2735700.356,-0.01884,-0.32483,9.87488,9,4.8,6
17.189,2735700.375,-0.01645,-0.32483,9.88445,9,4.8,6
17.21,2735700.394,-0.01884,-0.32004,9.88206,9,4.8,6
17.226,2735700.413,-0.02841,-0.32483,9.87967,9,4.8,6
17.243,2735700.432,-0.01884,-0.332,9.87727,9,4.8,6
17.262,2735700.451,-0.02124,-0.32004,9.88924,9,4.8,6
17.285,2735700.47,-0.00688,-0.32483,9.87249,9,4.8,6
17.301,2735700.489,-0.01167,-0.32483,9.88206,9,4.8,6
17.319,2735700.508,-0.01167,-0.31525,9.88206,9,4.8,6
17.338,2735700.527,-0.02363,-0.32004,9.87967,9,4.8,6
17.358,2735700.546,-0.00688,-0.32243,9.87727,9,4.8,6
17.379,2735700.565,-0.01406,-0.32004,9.88206,9,4.8,6
17.397,2735700.584,-0.01406,-0.32722,9.88206,9,4.8,6
17.415,2735700.603,-0.01167,-0.31765,9.87727,9,4.8,6
17.436,2735700.622,-0.02363,-0.32243,9.88445,9,4.8,6
17.454,2735700.641,-0.01167,-0.32483,9.87488,9,4.8,6
17.476,2735700.66,-0.00688,-0.32961,9.87488,9,4.8,6
17.493,2735700.679,-0.01406,-0.32483,9.87488,9,4.8,6
17.511,2735700.698,-0.02124,-0.32004,9.87009,9,4.8,6
17.53,2735700.717,-0.02363,-0.32243,9.87967,9,4.8,6
17.55,2735700.736,-0.02363,-0.32243,9.87967,9,4.8,6
17.571,2735700.755,-0.00688,-0.32243,9.88684,9,4.8,6
17.59,2735700.774,-0.01167,-0.332,9.88206,9,4.8,6
17.606,2735700.793,-0.01406,-0.32483,9.88445,9,4.8,6
17.625,2735700.812,-0.01645,-0.32961,9.88684,9,4.8,6
17.66,2735700.832,-0.01884,-0.31765,9.87009,9,4.8,6
17.669,2735700.851,-0.01167,-0.31525,9.87967,9,4.8,6
17.681,2735700.87,-0.01884,-0.32483,9.88206,9,4.8,6
17.701,2735700.889,-0.02124,-0.32004,9.88684,9,4.8,6
17.719,2735700.908,-0.01406,-0.3344,9.87967,9,4.8,6
17.739,2735700.927,-0.01645,-0.32483,9.87488,9,4.8,6
17.757,2735700.946,-0.02124,-0.32483,9.88206,9,4.8,6
17.776,2735700.965,-0.01884,-0.33679,9.87488,9,4.8,6
17.795,2735700.984,-0.02363,-0.332,9.88445,9,4.8,6
17.818,2735701.003,-0.02124,-0.32483,9.87967,9,4.8,6
17.836,2735701.022,-0.02124,-0.31765,9.87967,9,4.8,6
17.853,2735701.041,-0.01167,-0.32722,9.88445,9,4.8,6
17.872,2735701.06,-0.01406,-0.332,9.87727,9,4.8,6
17.89,2735701.079,-0.01645,-0.32961,9.88445,9,4.8,6
17.91,2735701.098,-0.02124,-0.31286,9.88206,9,4.8,6
17.928,2735701.117,-0.02363,-0.32483,9.89163,9,4.8,6
17.947,2735701.136,-0.0332,-0.31525,9.8677,9,4.8,6
17.966,2735701.155,-0.02363,-0.32961,9.87967,9,4.8,6
17.987,2735701.174,-0.02124,-0.31525,9.87967,9,4.8,6
18.004,2735701.193,-0.02363,-0.32004,9.88206,9,4.8,6
18.023,2735701.212,-0.01645,-0.32243,9.87967,9,4.8,6
18.043,2735701.231,-0.02124,-0.32243,9.87967,9,4.8,6
18.063,2735701.25,-0.01645,-0.32243,9.87488,9,4.8,6
18.082,2735701.269,-0.00927,-0.32722,9.87009,9,4.8,6
18.1,2735701.288,-0.01406,-0.32722,9.88445,9,4.8,6
18.118,2735701.307,-0.02841,-0.32243,9.87967,9,4.8,6
18.137,2735701.326,-0.02363,-0.32961,9.88684,9,4.8,6
18.157,2735701.345,-0.01884,-0.32961,9.88924,9,4.8,6
18.176,2735701.364,-0.00209,-0.31765,9.87009,9,4.8,6
18.196,2735701.383,-0.01884,-0.32004,9.87727,9,4.8,6
18.214,2735701.402,-0.02363,-0.31765,9.87727,9,4.8,6
18.234,2735701.421,-0.01167,-0.31047,9.88684,9,4.8,6
18.253,2735701.44,-0.02363,-0.32722,9.87727,9,4.8,6
18.271,2735701.459,-0.03081,-0.32483,9.87488,9,4.8,6
18.292,2735701.478,-0.02124,-0.31286,9.88684,9,4.8,6
18.308,2735701.497,-0.01167,-0.32483,9.88684,9,4.8,6
18.329,2735701.516,-0.01167,-0.32004,9.87967,9,4.8,6
18.35,2735701.535,-0.02602,-0.32722,9.88206,9,4.8,6
18.368,2735701.554,-0.02124,-0.33679,9.87727,9,4.8,6
18.385,2735701.573,-0.02363,-0.32961,9.87488,9,4.8,6
18.404,2735701.592,-0.02124,-0.32483,9.87488,9,4.8,6
18.424,2735701.611,-0.01884,-0.332,9.88206,9,4.8,6
18.443,2735701.63,-0.01884,-0.33679,9.87009,9,4.8,6
18.465,2735701.649,-0.02841,-0.332,9.88445,9,4.8,6
18.48,2735701.668,-0.01645,-0.33679,9.87249,9,4.8,6
18.499,2735701.687,-0.01645,-0.3344,9.88206,9,4.8,6
18.518,2735701.706,-0.00449,-0.32483,9.87488,9,4.8,6
18.537,2735701.726,-0.01645,-0.33918,9.88924,9,4.8,6
18.555,2735701.745,-0.00688,-0.32004,9.87727,9,4.8,6
18.574,2735701.764,-0.01884,-0.332,9.87967,9,4.8,6
18.595,2735701.783,-0.02124,-0.32483,9.87727,9,4.8,6
18.615,2735701.802,-0.01884,-0.32243,9.87967,9,4.8,6
18.633,2735701.821,-0.02124,-0.31286,9.88206,9,4.8,6
18.652,2735701.84,-0.02124,-0.32483,9.88445,9,4.8,6
18.671,2735701.859,-0.01645,-0.32722,9.88206,9,4.8,6
18.69,2735701.878,-0.02124,-0.32722,9.87249,9,4.8,6
18.708,2735701.897,-0.01645,-0.332,9.87727,9,4.8,6
18.727,2735701.916,-0.02124,-0.3344,9.88206,9,4.8,6
18.748,2735701.935,-0.01884,-0.32483,9.87967,9,4.8,6
18.767,2735701.954,-0.01645,-0.31525,9.87727,9,4.8,6
18.785,2735701.973,-0.01645,-0.32004,9.88206,9,4.8,6
18.804,2735701.992,-0.02363,-0.3344,9.87727,9,4.8,6
18.823,2735702.011,-0.01884,-0.32243,9.88924,9,4.8,6
18.842,2735702.03,-0.01884,-0.32483,9.88445,9,4.8,6
18.862,2735702.049,-0.01406,-0.32243,9.88206,9,4.8,6
18.88,2735702.068,-0.01406,-0.32483,9.88206,9,4.8,6
18.898,2735702.087,-0.02124,-0.31525,9.87488,9,4.8,6
18.918,2735702.106,-0.01645,-0.31047,9.88445,9,4.8,6
18.936,2735702.125,-0.01884,-0.32483,9.88445,9,4.8,6
18.958,2735702.144,-0.02363,-0.32961,9.88206,9,4.8,6
18.976,2735702.163,-0.00927,-0.32483,9.87727,9,4.8,6
18.993,2735702.182,-0.01167,-0.32004,9.87727,9,4.8,6
19.014,2735702.201,-0.01645,-0.32961,9.87727,9,4.8,6
19.033,2735702.22,-0.01884,-0.32004,9.87967,9,4.8,6
19.051,2735702.239,-0.01645,-0.32004,9.87967,9,4.8,6
19.071,2735702.258,-0.01884,-0.32004,9.87488,9,4.8,6
19.09,2735702.277,-0.01645,-0.32243,9.88206,9,4.8,6
19.108,2735702.296,-0.02363,-0.32961,9.87249,9,4.8,6
19.128,2735702.315,-0.01645,-0.32961,9.88924,9,4.8,6
19.146,2735702.334,-0.01167,-0.32243,9.87727,9,4.8,6
19.165,2735702.353,-0.01406,-0.332,9.88206,9,4.8,6
19.184,2735702.372,-0.01406,-0.31765,9.87488,9,4.8,6
19.203,2735702.391,-0.01167,-0.32961,9.87727,9,4.8,6
19.222,2735702.41,-0.01167,-0.32483,9.87249,9,4.8,6
19.24,2735702.429,-0.00927,-0.31286,9.88206,9,4.8,6
19.264,2735702.448,-0.02124,-0.32004,9.87727,9,4.8,6
19.279,2735702.467,-0.01645,-0.32243,9.88684,9,4.8,6
19.298,2735702.486,-0.02602,-0.30808,9.88445,9,4.8,6
19.317,2735702.505,-0.00688,-0.32722,9.87967,9,4.8,6
19.339,2735702.524,-0.01406,-0.32004,9.8677,9,4.8,6
19.355,2735702.543,-0.01645,-0.32483,9.87967,9,4.8,6
19.376,2735702.562,-0.01645,-0.32243,9.87727,9,4.8,6
19.395,2735702.581,-0.02124,-0.32722,9.87967,9,4.8,6
19.414,2735702.6,-0.02602,-0.31525,9.87727,9,4.8,6
19.433,2735702.62,-0.01406,-0.32243,9.88206,9,4.8,6
19.45,2735702.639,-0.01645,-0.31765,9.8677,9,4.8,6
19.471,2735702.658,-0.01167,-0.32722,9.88206,9,4.8,6
19.49,2735702.677,-0.01167,-0.32243,9.87488,9,4.8,6
19.508,2735702.696,-0.01167,-0.31525,9.88445,9,4.8,6
19.528,2735702.715,-0.02363,-0.32722,9.87009,9,4.8,6
19.547,2735702.734,-0.02602,-0.31286,9.88206,9,4.8,6
19.568,2735702.753,-0.02841,-0.31765,9.87488,9,4.8,6
19.583,2735702.772,-0.01167,-0.32483,9.88206,9,4.8,6
19.604,2735702.791,-0.01884,-0.32483,9.87488,9,4.8,6
19.621,2735702.81,-0.02124,-0.31525,9.89642,9,4.8,6
19.646,2735702.829,-0.01645,-0.32961,9.8677,9,4.8,6
19.659,2735702.848,-0.01645,-0.32483,9.89642,9,4.8,6
19.68,2735702.867,-0.02124,-0.332,9.87249,9,4.8,6
19.698,2735702.886,-0.01884,-0.32004,9.87488,9,4.8,6
19.716,2735702.905,-0.01645,-0.32243,9.87727,9,4.8,6
19.737,2735702.924,-0.02124,-0.32961,9.88684,9,4.8,6
19.756,2735702.943,-0.02602,-0.3344,9.88445,9,4.8,6
19.779,2735702.962,-0.02363,-0.31765,9.87249,9,4.8,6
19.794,2735702.981,-0.00927,-0.32961,9.88206,9,4.8,6
19.813,2735703.0,-0.01645,-0.32961,9.87488,9,4.8,6
19.833,2735703.019,-0.01645,-0.33918,9.87488,9,4.8,6
19.85,2735703.038,-0.02124,-0.31765,9.87488,9,4.8,6
19.871,2735703.057,-0.02602,-0.32961,9.89163,9,4.8,6
19.89,2735703.076,-0.02363,-0.332,9.87488,9,4.8,6
19.908,2735703.095,-0.01645,-0.31765,9.88684,9,4.8,6
19.928,2735703.114,-0.01884,-0.32722,9.88206,9,4.8,6
19.945,2735703.133,-0.01884,-0.32722,9.88206,9,4.8,6
19.965,2735703.152,-0.02124,-0.32483,9.87727,9,4.8,6
19.986,2735703.171,-0.01884,-0.32483,9.88445,9,4.8,6
20.003,2735703.19,-0.01167,-0.31765,9.87249,9,4.8,6
20.022,2735703.209,-0.00688,-0.332,9.87727,9,4.8,6
20.04,2735703.228,-0.01884,-0.32004,9.88206,9,4.8,6
20.064,2735703.247,-0.02841,-0.32004,9.87967,9,4.8,6
20.082,2735703.266,-0.01884,-0.32483,9.87967,9,4.8,6
20.097,2735703.285,-0.01167,-0.32483,9.88206,9,4.8,6
20.115,2735703.304,-0.01645,-0.32722,9.87967,9,4.8,6
20.138,2735703.323,-0.02602,-0.32961,9.88445,9,4.8,6
20.155,2735703.342,-0.01884,-0.32004,9.88445,9,4.8,6
20.175,2735703.361,-0.02124,-0.32243,9.88206,9,4.8,6
20.191,2735703.38,-0.02602,-0.32722,9.87967,9,4.8,6
20.213,2735703.399,-0.01645,-0.32483,9.87249,9,4.8,6
20.235,2735703.418,-0.02363,-0.32961,9.88206,9,4.8,6
20.251,2735703.437,-0.01645,-0.32483,9.88206,9,4.8,6
20.269,2735703.456,-0.01884,-0.3344,9.88206,9,4.8,6
20.29,2735703.475,-0.02841,-0.32243,9.87967,9,4.8,6
20.307,2735703.494,-0.01884,-0.32722,9.88206,9,4.8,6
20.327,2735703.514,-0.00927,-0.32243,9.87967,9,4.8,6
20.346,2735703.533,-0.01406,-0.32961,9.88684,9,4.8,6
20.367,2735703.552,-0.02124,-0.32004,9.87249,9,4.8,6
20.388,2735703.571,-0.01406,-0.31765,9.89402,9,4.8,6
20.401,2735703.59,-0.00688,-0.32243,9.88445,9,4.8,6
20.421,2735703.609,-0.01645,-0.31765,9.88206,9,4.8,6
20.439,2735703.628,-0.01167,-0.332,9.87727,9,4.8,6
20.459,2735703.647,-0.01167,-0.32243,9.88206,9,4.8,6
20.479,2735703.666,-0.01406,-0.33679,9.88206,9,4.8,6
20.497,2735703.685,-0.01406,-0.31765,9.87488,9,4.8,6
20.515,2735703.704,-0.01645,-0.32004,9.87727,9,4.8,6
20.539,2735703.723,-0.01645,-0.32483,9.88206,9,4.8,6
20.557,2735703.742,-0.02124,-0.332,9.87249,9,4.8,6
20.577,2735703.761,-0.01167,-0.332,9.87249,9,4.8,6
20.593,2735703.78,-0.01406,-0.3344,9.87967,9,4.8,6
20.611,2735703.799,-0.01167,-0.32483,9.88445,9,4.8,6
20.632,2735703.818,-0.01884,-0.332,9.87967,9,4.8,6
20.654,2735703.837,-0.01167,-0.32004,9.87249,9,4.8,6
20.672,2735703.856,-0.01167,-0.332,9.87488,9,4.8,6
20.691,2735703.875,-0.02124,-0.32004,9.88445,9,4.8,6
20.706,2735703.894,-0.01645,-0.32243,9.88206,9,4.8,6
20.725,2735703.913,-0.01167,-0.30568,9.88206,9,4.8,6
20.744,2735703.932,-0.01645,-0.32483,9.87967,9,4.8,6
20.766,2735703.951,-0.02124,-0.32722,9.87967,9,4.8,6
20.785,2735703.97,-0.01884,-0.32483,9.88684,9,4.8,6
20.803,2735703.989,-0.03081,-0.32961,9.87967,9,4.8,6
20.821,2735704.008,-0.01645,-0.32243,9.88445,9,4.8,6
20.838,2735704.027,-0.01406,-0.31525,9.87488,9,4.8,6
20.86,2735704.046,-0.01884,-0.32722,9.87249,9,4.8,6
20.878,2735704.065,-0.01645,-0.31765,9.87727,9,4.8,6
20.897,2735704.084,-0.01406,-0.32961,9.87727,9,4.8,6
20.916,2735704.103,-0.00927,-0.32722,9.88206,9,4.8,6
20.939,2735704.122,-0.01406,-0.32961,9.88445,9,4.8,6
20.954,2735704.141,-0.02363,-0.31525,9.87967,9,4.8,6
20.977,2735704.16,-0.02602,-0.31525,9.88206,9,4.8,6
20.993,2735704.179,-0.01884,-0.31047,9.87488,9,4.8,6
21.012,2735704.198,-0.02124,-0.32483,9.87967,9,4.8,6
21.034,2735704.217,-0.01406,-0.32243,9.87727,9,4.8,6
21.052,2735704.236,-0.02363,-0.32483,9.87249,9,4.8,6
21.068,2735704.255,-0.01406,-0.31765,9.87967,9,4.8,6
21.088,2735704.274,-0.00688,-0.31765,9.87488,9,4.8,6
21.105,2735704.293,-0.01645,-0.332,9.88445,9,4.8,6
21.124,2735704.312,-0.02363,-0.3344,9.87967,9,4.8,6
21.143,2735704.331,-0.02602,-0.31525,9.87488,9,4.8,6
21.163,2735704.35,-0.01884,-0.33918,9.88206,9,4.8,6
21.184,2735704.369,-0.01167,-0.31765,9.87727,9,4.8,6
21.206,2735704.388,-0.02124,-0.32722,9.88206,9,4.8,6
21.22,2735704.408,-0.02363,-0.32961,9.88206,9,4.8,6
21.237,2735704.427,-0.01167,-0.31765,9.86531,9,4.8,6
21.259,2735704.446,-0.01645,-0.31286,9.87967,9,4.8,6
21.275,2735704.465,-0.00449,-0.32243,9.88445,9,4.8,6
21.296,2735704.484,-0.00688,-0.32243,9.88684,9,4.8,6
21.316,2735704.503,-0.01167,-0.32243,9.88445,9,4.8,6
21.337,2735704.522,-0.01406,-0.30808,9.87967,9,4.8,6
21.356,2735704.541,-0.01167,-0.31525,9.88206,9,4.8,6
21.376,2735704.56,-0.02841,-0.31765,9.87009,9,4.8,6
21.395,2735704.579,-0.01884,-0.32722,9.89402,9,4.8,6
21.41,2735704.598,-0.01406,-0.31765,9.87727,9,4.8,6
21.43,2735704.617,-0.01884,-0.32243,9.87488,9,4.8,6
21.448,2735704.636,-0.01884,-0.32483,9.87249,9,4.8,6
21.471,2735704.655,-0.01645,-0.32243,9.87727,9,4.8,6
21.49,2735704.674,-0.01884,-0.32961,9.88206,9,4.8,6
21.506,2735704.693,-0.02124,-0.32961,9.87488,9,4.8,6
21.523,2735704.712,-0.02124,-0.32243,9.87967,9,4.8,6
21.547,2735704.731,-0.02363,-0.32004,9.87249,9,4.8,6
21.567,2735704.75,-0.01884,-0.32483,9.88445,9,4.8,6
21.583,2735704.769,-0.01645,-0.32243,9.87967,9,4.8,6
21.601,2735704.788,-0.02363,-0.32243,9.88684,9,4.8,6
21.62,2735704.807,-0.00449,-0.32243,9.88445,9,4.8,6
21.65,2735704.826,-0.01167,-0.32961,9.88445,9,4.8,6
21.657,2735704.845,-0.01406,-0.32004,9.87967,9,4.8,6
21.676,2735704.864,-0.02124,-0.31047,9.87488,9,4.8,6
21.695,2735704.883,-0.01406,-0.32483,9.87249,9,4.8,6
21.715,2735704.902,-0.00449,-0.32243,9.87727,9,4.8,6
21.734,2735704.921,-0.01645,-0.31765,9.87488,9,4.8,6
21.756,2735704.94,-0.02124,-0.30808,9.88206,9,4.8,6
21.774,2735704.959,-0.02363,-0.332,9.87249,9,4.8,6
21.794,2735704.978,-0.01406,-0.32004,9.88684,9,4.8,6
21.809,2735704.997,-0.01645,-0.32004,9.87488,9,4.8,6
21.829,2735705.016,-0.01167,-0.32961,9.88924,9,4.8,6
21.848,2735705.035,-0.01406,-0.32483,9.87727,9,4.8,6
21.868,2735705.054,-0.01406,-0.32961,9.88206,9,4.8,6
21.887,2735705.073,-0.00688,-0.32483,9.87009,9,4.8,6
21.905,2735705.092,-0.02124,-0.31765,9.87488,9,4.8,6
21.925,2735705.111,-0.01406,-0.30808,9.87488,9,4.8,6
21.944,2735705.13,-0.02841,-0.332,9.88684,9,4.8,6
21.963,2735705.149,-0.01645,-0.31525,9.87488,9,4.8,6
21.986,2735705.168,-0.00688,-0.32004,9.88206,9,4.8,6
22.0,2735705.187,-0.02124,-0.31765,9.87488,9,4.8,6
22.018,2735705.206,-0.01406,-0.32483,9.88445,9,4.8,6
22.04,2735705.225,-0.02363,-0.31765,9.87488,9,4.8,6
22.058,2735705.244,-0.02363,-0.32722,9.89163,9,4.8,6
22.083,2735705.263,-0.01645,-0.32483,9.87727,9,4.8,6
22.095,2735705.282,-0.02602,-0.32722,9.87727,9,4.8,6
22.115,2735705.302,-0.02124,-0.332,9.87488,9,4.8,6
22.141,2735705.321,-0.00688,-0.31286,9.88684,9,4.8,6
22.152,2735705.34,-0.02124,-0.32722,9.87009,9,4.8,6
22.171,2735705.359,-0.02124,-0.33679,9.87727,9,4.8,6
22.191,2735705.378,-0.0332,-0.32483,9.87249,9,4.8,6
22.209,2735705.397,-0.02602,-0.32004,9.87967,9,4.8,6
22.229,2735705.416,-0.01645,-0.32722,9.87727,9,4.8,6
22.247,2735705.435,-0.01406,-0.31047,9.88206,9,4.8,6
22.27,2735705.454,-0.01167,-0.32961,9.87967,9,4.8,6
22.285,2735705.473,-0.01167,-0.32961,9.88924,9,4.8,6
22.303,2735705.492,-0.01167,-0.32483,9.87488,9,4.8,6
22.322,2735705.511,-0.02363,-0.32961,9.88684,9,4.8,6
22.341,2735705.53,-0.02124,-0.32483,9.87727,9,4.8,6
22.362,2735705.549,-0.02124,-0.32243,9.87967,9,4.8,6
22.381,2735705.568,-0.02124,-0.32483,9.87727,9,4.8,6
22.398,2735705.587,-0.01406,-0.3344,9.88206,9,4.8,6
22.417,2735705.606,-0.02124,-0.32243,9.88206,9,4.8,6
22.436,2735705.625,-0.01645,-0.32243,9.87967,9,4.8,6
22.461,2735705.644,-0.02363,-0.32483,9.88206,9,4.8,6
22.475,2735705.663,-0.01884,-0.32243,9.87488,9,4.8,6
22.494,2735705.682,-0.00688,-0.32722,9.88445,9,4.8,6
22.515,2735705.701,-0.01406,-0.32483,9.87727,9,4.8,6
22.534,2735705.72,-0.02602,-0.32483,9.88206,9,4.8,6
22.555,2735705.739,-0.01406,-0.31765,9.88445,9,4.8,6
22.573,2735705.758,-0.01884,-0.32483,9.88445,9,4.8,6
22.589,2735705.777,-0.02363,-0.32483,9.87249,9,4.8,6
22.609,2735705.796,-0.01167,-0.332,9.87488,9,4.8,6
22.628,2735705.815,-0.01884,-0.31525,9.88206,9,4.8,6
22.651,2735705.834,-0.00927,-0.332,9.88206,9,4.8,6
22.67,2735705.853,-0.01884,-0.32961,9.87727,9,4.8,6
22.685,2735705.872,-0.01645,-0.332,9.88684,9,4.8,6
22.704,2735705.891,-0.01406,-0.332,9.87967,9,4.8,6
22.722,2735705.91,-0.01645,-0.332,9.88206,9,4.8,6
22.741,2735705.929,-0.01167,-0.32243,9.88206,9,4.8,6
22.761,2735705.948,-0.02124,-0.32243,9.87727,9,4.8,6
22.78,2735705.967,-0.02124,-0.32961,9.87727,9,4.8,6
22.798,2735705.986,-0.03081,-0.31286,9.87967,9,4.8,6
22.819,2735706.005,-0.00688,-0.3344,9.88445,9,4.8,6
22.836,2735706.024,-0.01406,-0.32243,9.88684,9,4.8,6
22.859,2735706.043,-0.02363,-0.32483,9.88445,9,4.8,6
22.875,2735706.062,-0.01406,-0.32243,9.88206,9,4.8,6
22.893,2735706.081,-0.01645,-0.33679,9.87967,9,4.8,6
22.914,2735706.1,-0.02841,-0.32483,9.88684,9,4.8,6
22.937,2735706.119,-0.02363,-0.31765,9.88206,9,4.8,6
22.951,2735706.138,-0.02363,-0.332,9.88684,9,4.8,6
22.973,2735706.157,-0.01884,-0.32722,9.87727,9,4.8,6
22.99,2735706.176,-0.01645,-0.32722,9.88924,9,4.8,6
23.007,2735706.196,-0.00927,-0.332,9.87967,9,4.8,6
23.027,2735706.215,-0.01167,-0.332,9.88445,9,4.8,6
23.046,2735706.234,-0.00927,-0.32722,9.87727,9,4.8,6
23.065,2735706.253,-0.01167,-0.34158,9.87967,9,4.8,6
23.084,2735706.272,-0.02602,-0.32722,9.88445,9,4.8,6
23.104,2735706.291,-0.01406,-0.31525,9.88206,9,4.8,6
23.121,2735706.31,-0.01406,-0.32483,9.88206,9,4.8,6
23.14,2735706.329,-0.02124,-0.3344,9.87009,9,4.8,6
23.161,2735706.348,-0.02363,-0.32961,9.88206,9,4.8,6
23.18,2735706.367,-0.02124,-0.33918,9.87488,9,4.8,6
23.198,2735706.386,-0.00688,-0.32483,9.89402,9,4.8,6
23.22,2735706.405,-0.01645,-0.3344,9.87488,9,4.8,6
23.24,2735706.424,-0.01406,-0.32961,9.87009,9,4.8,6
23.26,2735706.443,-0.01884,-0.33679,9.87488,9,4.8,6
23.274,2735706.462,-0.02363,-0.32243,9.87727,9,4.8,6
23.292,2735706.481,-0.01406,-0.32004,9.88206,9,4.8,6
23.313,2735706.5,-0.02124,-0.32243,9.87967,9,4.8,6
23.336,2735706.519,-0.01884,-0.31765,9.88206,9,4.8,6
23.354,2735706.538,-0.00209,-0.32722,9.87727,9,4.8,6
23.373,2735706.557,-0.02124,-0.32243,9.88684,9,4.8,6
23.389,2735706.576,-0.01884,-0.31765,9.87967,9,4.8,6
23.407,2735706.595,-0.02124,-0.31525,9.88445,9,4.8,6
23.427,2735706.614,-0.02124,-0.332,9.88445,9,4.8,6
23.446,2735706.633,-0.01645,-0.32243,9.88206,9,4.8,6
23.469,2735706.652,-0.00927,-0.332,9.87727,9,4.8,6
23.485,2735706.671,-0.01884,-0.32961,9.88206,9,4.8,6
23.503,2735706.69,-0.02124,-0.3344,9.87488,9,4.8,6
23.522,2735706.709,-0.02602,-0.32483,9.88684,9,4.8,6
23.542,2735706.728,-0.00927,-0.3344,9.87009,9,4.8,6
23.56,2735706.747,-0.02124,-0.32722,9.88445,9,4.8,6
23.58,2735706.766,-0.01884,-0.32243,9.87727,9,4.8,6
23.597,2735706.785,-0.00449,-0.32483,9.87727,9,4.8,6
23.62,2735706.804,-0.01167,-0.32483,9.87488,9,4.8,6
23.66,2735706.823,-0.01645,-0.32483,9.88684,9,4.8,6
23.661,2735706.842,-0.01167,-0.31047,9.87967,9,4.8,6
23.675,2735706.861,-0.01884,-0.32243,9.88924,9,4.8,6
23.691,2735706.88,-0.02124,-0.31286,9.88206,9,4.8,6
23.712,2735706.899,-0.01884,-0.32243,9.88684,9,4.8,6
23.731,2735706.918,-0.00927,-0.32961,9.87727,9,4.8,6
23.75,2735706.937,-0.00688,-0.31765,9.88924,9,4.8,6
23.769,2735706.956,-0.01884,-0.33679,9.86531,9,4.8,6
23.789,2735706.975,-0.01645,-0.31765,9.9012,9,4.8,6
23.807,2735706.994,-0.01884,-0.32004,9.8677,9,4.8,6
23.826,2735707.013,-0.02124,-0.32961,9.89163,9,4.8,6
23.846,2735707.032,-0.01645,-0.32961,9.87727,9,4.8,6
23.868,2735707.051,-0.01884,-0.32243,9.87967,9,4.8,6
23.886,2735707.07,-0.00688,-0.31765,9.88445,9,4.8,6
23.903,2735707.09,-0.02602,-0.32722,9.88924,9,4.8,6
23.92,2735707.109,-0.01406,-0.3344,9.88445,9,4.8,6
23.94,2735707.128,-0.01884,-0.32004,9.88684,9,4.8,6
23.959,2735707.147,-0.01645,-0.32243,9.87488,9,4.8,6
23.979,2735707.166,-0.01645,-0.32961,9.88206,9,4.8,6
23.998,2735707.185,-0.01884,-0.32004,9.87488,9,4.8,6
24.02,2735707.204,-0.01167,-0.32483,9.87488,9,4.8,6
24.036,2735707.223,-0.02124,-0.32961,9.88206,9,4.8,6
24.059,2735707.242,-0.01884,-0.32722,9.87009,9,4.8,6
24.075,2735707.261,-0.02602,-0.32722,9.87727,9,4.8,6
24.092,2735707.28,-0.03081,-0.32722,9.88206,9,4.8,6
24.113,2735707.299,-0.02363,-0.32243,9.87488,9,4.8,6
24.13,2735707.318,-0.01167,-0.32961,9.87727,9,4.8,6
24.149,2735707.337,-0.02363,-0.32004,9.88206,9,4.8,6
24.169,2735707.356,-0.01167,-0.32961,9.87967,9,4.8,6
24.188,2735707.375,-0.01167,-0.32004,9.88445,9,4.8,6
24.206,2735707.394,-0.02363,-0.32961,9.88206,9,4.8,6
24.226,2735707.413,-0.01884,-0.32243,9.88445,9,4.8,6
24.244,2735707.432,-0.02602,-0.31765,9.87967,9,4.8,6
24.263,2735707.451,-0.02363,-0.32243,9.87967,9,4.8,6
24.283,2735707.47,-0.02841,-0.32004,9.87967,9,4.8,6
24.301,2735707.489,-0.02602,-0.32483,9.87727,9,4.8,6
24.32,2735707.508,-0.01167,-0.32243,9.87967,9,4.8,6
24.339,2735707.527,-0.02124,-0.3344,9.88445,9,4.8,6
24.359,2735707.546,-0.00449,-0.332,9.87727,9,4.8,6
24.379,2735707.565,-0.01406,-0.32722,9.87488,9,4.8,6
24.396,2735707.584,-0.02124,-0.32243,9.88206,9,4.8,6
24.415,2735707.603,-0.02363,-0.31525,9.88206,9,4.8,6
24.436,2735707.622,-0.01167,-0.31525,9.87488,9,4.8,6
24.456,2735707.641,-0.01406,-0.32483,9.88684,9,4.8,6
24.476,2735707.66,-0.02124,-0.32243,9.87727,9,4.8,6
24.491,2735707.679,-0.01406,-0.3344,9.88684,9,4.8,6
24.51,2735707.698,-0.02124,-0.3344,9.87249,9,4.8,6
24.534,2735707.717,-0.01645,-0.32961,9.87727,9,4.8,6
24.549,2735707.736,-0.01645,-0.332,9.88206,9,4.8,6
24.571,2735707.755,-0.03081,-0.32722,9.87967,9,4.8,6
24.591,2735707.774,-0.01645,-0.32722,9.87967,9,4.8,6
24.606,2735707.793,-0.02363,-0.32961,9.89881,9,4.8,6
24.624,2735707.812,-0.01406,-0.32243,9.87488,9,4.8,6
24.644,2735707.831,-0.02602,-0.3344,9.88924,9,4.8,6
24.663,2735707.85,-0.01645,-0.32961,9.87249,9,4.8,6
24.685,2735707.869,-0.01406,-0.32961,9.89881,9,4.8,6
24.7,2735707.888,-0.01167,-0.32722,9.87009,9,4.8,6
24.719,2735707.907,-0.02363,-0.32004,9.89163,9,4.8,6
24.74,2735707.926,-0.01406,-0.32243,9.87488,9,4.8,6
24.76,2735707.945,-0.01884,-0.31286,9.88924,9,4.8,6
24.777,2735707.964,-0.01645,-0.32961,9.87009,9,4.8,6
24.796,2735707.984,-0.02124,-0.33679,9.88684,9,4.8,6
24.816,2735708.003,-0.03081,-0.33918,9.87488,9,4.8,6
24.838,2735708.022,-0.02363,-0.32483,9.88684,9,4.8,6
24.857,2735708.041,-0.02363,-0.32483,9.87727,9,4.8,6
24.875,2735708.06,-0.01167,-0.32722,9.88206,9,4.8,6
24.893,2735708.079,-0.00688,-0.31286,9.87249,9,4.8,6
24.911,2735708.098,-0.01645,-0.332,9.88684,9,4.8,6
24.93,2735708.117,-0.00927,-0.32243,9.87727,9,4.8,6
24.949,2735708.136,-0.01645,-0.32961,9.88445,9,4.8,6
24.972,2735708.155,-0.02124,-0.31047,9.88445,9,4.8,6
24.986,2735708.174,-0.00927,-0.31765,9.89163,9,4.8,6
25.004,2735708.193,-0.01884,-0.332,9.87967,9,4.8,6
25.025,2735708.212,-0.00927,-0.32004,9.87727,9,4.8,6
25.043,2735708.231,-0.01884,-0.32961,9.87727,9,4.8,6
25.066,2735708.25,-0.01167,-0.32004,9.88206,9,4.8,6
25.084,2735708.269,-0.01645,-0.32961,9.88445,9,4.8,6
25.1,2735708.288,-0.02363,-0.332,9.87488,9,4.8,6
25.119,2735708.307,-0.01884,-0.32243,9.87967,9,4.8,6
25.137,2735708.326,-0.01645,-0.32961,9.87967,9,4.8,6
25.156,2735708.345,-0.01645,-0.3344,9.88445,9,4.8,6
25.176,2735708.364,-0.02124,-0.332,9.87967,9,4.8,6
25.197,2735708.383,-0.02363,-0.32722,9.87967,9,4.8,6
25.22,2735708.402,-0.01406,-0.32483,9.87967,9,4.8,6
25.236,2735708.421,-0.02363,-0.32243,9.87488,9,4.8,6
25.252,2735708.44,-0.01645,-0.32722,9.88924,9,4.8,6
25.276,2735708.459,-0.01406,-0.32483,9.88924,9,4.8,6
25.29,2735708.478,-0.01645,-0.33679,9.87967,9,4.8,6
25.309,2735708.497,-0.02124,-0.32722,9.88445,9,4.8,6
25.33,2735708.516,-0.02124,-0.32243,9.87249,9,4.8,6
25.352,2735708.535,-0.02363,-0.332,9.89163,9,4.8,6
25.367,2735708.554,-0.01167,-0.32243,9.86052,9,4.8,6
25.389,2735708.573,-0.01884,-0.332,9.89163,9,4.8,6
25.404,2735708.592,-0.01406,-0.32961,9.87967,9,4.8,6
25.423,2735708.611,-0.01406,-0.32961,9.88445,9,4.8,6
25.444,2735708.63,-0.02363,-0.32004,9.87967,9,4.8,6
25.466,2735708.649,-0.01406,-0.31765,9.87727,9,4.8,6
25.481,2735708.668,-0.02124,-0.31047,9.87967,9,4.8,6
25.501,2735708.687,-0.01645,-0.32243,9.87488,9,4.8,6
25.518,2735708.706,-0.02602,-0.32483,9.88684,9,4.8,6
25.538,2735708.725,-0.01884,-0.33679,9.87249,9,4.8,6
25.56,2735708.744,-0.01645,-0.32243,9.88445,9,4.8,6
25.576,2735708.763,-0.01645,-0.32722,9.87488,9,4.8,6
25.597,2735708.782,-0.02363,-0.32483,9.88684,9,4.8,6
25.616,2735708.801,-0.02841,-0.32483,9.88445,9,4.8,6
25.635,2735708.82,-0.01884,-0.32243,9.88445,9,4.8,6
25.661,2735708.839,-0.01406,-0.32243,9.88206,9,4.8,6
25.671,2735708.858,-0.02363,-0.32483,9.87727,9,4.8,6
25.69,2735708.878,-0.02124,-0.32483,9.88206,9,4.8,6
25.708,2735708.897,-0.02841,-0.31765,9.87488,9,4.8,6
25.728,2735708.916,-0.01406,-0.32961,9.87967,9,4.8,6
25.747,2735708.935,-0.00927,-0.32961,9.87727,9,4.8,6
25.77,2735708.954,-0.01167,-0.32483,9.88206,9,4.8,6
25.788,2735708.973,-0.01645,-0.31765,9.87727,9,4.8,6
25.804,2735708.992,-0.01167,-0.32243,9.87488,9,4.8,6
25.823,2735709.011,-0.02602,-0.32243,9.88445,9,4.8,6
25.843,2735709.03,-0.01884,-0.32722,9.88684,9,4.8,6
25.865,2735709.049,-0.02124,-0.33679,9.88684,9,4.8,6
25.881,2735709.068,-0.01645,-0.32243,9.88924,9,4.8,6
25.9,2735709.087,-0.01884,-0.332,9.88206,9,4.8,6
25.92,2735709.106,-0.01884,-0.32722,9.88684,9,4.8,6
25.94,2735709.125,-0.02602,-0.32722,9.87488,9,4.8,6
25.958,2735709.144,-0.02124,-0.32243,9.89163,9,4.8,6
25.979,2735709.163,-0.02602,-0.32961,9.87727,9,4.8,6
25.995,2735709.182,-0.02124,-0.32722,9.88924,9,4.8,6
26.015,2735709.201,-0.01406,-0.32483,9.87727,9,4.8,6
26.034,2735709.22,-0.01884,-0.32961,9.88445,9,4.8,6
26.056,2735709.239,-0.01167,-0.32243,9.87967,9,4.8,6
26.079,2735709.258,-0.00209,-0.33918,9.87967,9,4.8,6
26.09,2735709.277,-0.00927,-0.332,9.87488,9,4.8,6
26.108,2735709.296,-0.00927,-0.31765,9.87488,9,4.8,6
26.129,2735709.315,-0.01645,-0.32243,9.89642,9,4.8,6
26.147,2735709.334,-0.01406,-0.3344,9.87009,9,4.8,6
26.166,2735709.353,-0.02124,-0.32004,9.88445,9,4.8,6
26.187,2735709.372,-0.00688,-0.32243,9.87967,9,4.8,6
26.203,2735709.391,-0.01884,-0.32483,9.87967,9,4.8,6
26.222,2735709.41,-0.02602,-0.32243,9.88684,9,4.8,6
26.243,2735709.429,-0.01884,-0.32483,9.87727,9,4.8,6
26.262,2735709.448,-0.01884,-0.32961,9.88924,9,4.8,6
26.281,2735709.467,-0.01884,-0.32243,9.87009,9,4.8,6
26.299,2735709.486,-0.01645,-0.32004,9.88206,9,4.8,6
26.319,2735709.505,-0.02602,-0.31765,9.87967,9,4.8,6
26.338,2735709.524,-0.02363,-0.32722,9.88206,9,4.8,6
26.359,2735709.543,-0.02602,-0.32961,9.87488,9,4.8,6
26.377,2735709.562,-0.01884,-0.32004,9.87727,9,4.8,6
26.394,2735709.581,-0.02363,-0.32961,9.88206,9,4.8,6
26.414,2735709.6,-0.02124,-0.32004,9.87727,9,4.8,6
26.432,2735709.619,-0.01645,-0.32722,9.87727,9,4.8,6
26.452,2735709.638,-0.01884,-0.32961,9.88206,9,4.8,6
26.47,2735709.657,-0.02602,-0.32483,9.87488,9,4.8,6
26.489,2735709.676,-0.01884,-0.32243,9.88206,9,4.8,6
26.506,2735709.695,-0.01884,-0.32483,9.87488,9,4.8,6
26.53,2735709.714,-0.00927,-0.32483,9.88684,9,4.8,6
26.548,2735709.733,-0.01645,-0.32961,9.87488,9,4.8,6
26.568,2735709.752,-0.02363,-0.32243,9.87967,9,4.8,6
26.585,2735709.772,-0.01406,-0.32004,9.87727,9,4.8,6
26.602,2735709.791,-0.01884,-0.32722,9.88206,9,4.8,6
26.624,2735709.81,-0.00927,-0.3344,9.88445,9,4.8,6
26.645,2735709.829,-0.00927,-0.31765,9.88445,9,4.8,6
26.66,2735709.848,-0.00688,-0.31286,9.8677,9,4.8,6
26.683,2735709.867,-0.02363,-0.32722,9.88924,9,4.8,6
26.698,2735709.886,-0.02602,-0.32483,9.87488,9,4.8,6
26.718,2735709.905,-0.01884,-0.3344,9.87727,9,4.8,6
26.74,2735709.924,-0.02363,-0.32483,9.87249,9,4.8,6
26.758,2735709.943,-0.02124,-0.332,9.87488,9,4.8,6
26.777,2735709.962,-0.01884,-0.32483,9.87249,9,4.8,6
26.792,2735709.981,-0.01645,-0.32483,9.87727,9,4.8,6
26.813,2735710.0,-0.01406,-0.32483,9.87967,9,4.8,6
26.835,2735710.019,-0.00927,-0.32483,9.88206,9,4.8,6
26.85,2735710.038,-0.01167,-0.32243,9.88684,9,4.8,6
26.873,2735710.057,-0.01406,-0.31765,9.88684,9,4.8,6
26.889,2735710.076,-0.01406,-0.32722,9.88924,9,4.8,6
26.907,2735710.095,-0.01406,-0.31765,9.88445,9,4.8,6
26.926,2735710.114,-0.01645,-0.32722,9.88206,9,4.8,6
26.948,2735710.133,-0.01884,-0.32961,9.88445,9,4.8,6
26.965,2735710.152,-0.01406,-0.31525,9.88445,9,4.8,6
26.988,2735710.171,-0.01406,-0.32722,9.87727,9,4.8,6
27.002,2735710.19,-0.00688,-0.32483,9.87727,9,4.8,6
27.021,2735710.209,-0.01406,-0.32722,9.87967,9,4.8,6
27.04,2735710.228,-0.00927,-0.32483,9.87727,9,4.8,6
27.06,2735710.247,-0.01645,-0.32483,9.88445,9,4.8,6
27.083,2735710.266,-0.01645,-0.33918,9.88206,9,4.8,6
27.096,2735710.285,-0.00927,-0.31525,9.88206,9,4.8,6
27.116,2735710.304,-0.01884,-0.32722,9.88206,9,4.8,6
27.136,2735710.323,-0.02124,-0.32722,9.87727,9,4.8,6
27.155,2735710.342,-0.00927,-0.3344,9.87488,9,4.8,6
27.174,2735710.361,-0.01645,-0.32243,9.88206,9,4.8,6
27.191,2735710.38,-0.02124,-0.31765,9.87249,9,4.8,6
27.212,2735710.399,-0.02124,-0.32483,9.87727,9,4.8,6
27.234,2735710.418,-0.01645,-0.332,9.87967,9,4.8,6
27.249,2735710.437,-0.01406,-0.31525,9.87727,9,4.8,6
27.269,2735710.456,-0.01884,-0.32243,9.88684,9,4.8,6
27.288,2735710.475,-0.01884,-0.34158,9.87727,9,4.8,6
27.307,2735710.494,-0.01884,-0.32961,9.88684,9,4.8,6
27.324,2735710.513,-0.02363,-0.32483,9.87488,9,4.8,6
27.344,2735710.532,-0.01645,-0.31286,9.88445,9,4.8,6
27.365,2735710.551,-0.02363,-0.32243,9.87967,9,4.8,6
27.384,2735710.57,-0.01406,-0.33679,9.88684,9,4.8,6
27.402,2735710.589,-0.01645,-0.332,9.87727,9,4.8,6
27.42,2735710.608,-0.01645,-0.31765,9.87727,9,4.8,6
27.439,2735710.627,-0.02124,-0.32483,9.88445,9,4.8,6
27.46,2735710.646,-0.02124,-0.3344,9.87249,9,4.8,6
27.479,2735710.666,-0.02124,-0.33918,9.87488,9,4.8,6
27.497,2735710.685,-0.02841,-0.32243,9.87967,9,4.8,6
27.516,2735710.704,-0.02124,-0.32961,9.88684,9,4.8,6
27.541,2735710.723,-0.01167,-0.32722,9.88206,9,4.8,6
27.555,2735710.742,-0.01645,-0.32722,9.88684,9,4.8,6
27.575,2735710.761,-0.01645,-0.32004,9.87488,9,4.8,6
27.593,2735710.78,-0.01167,-0.32961,9.87967,9,4.8,6
27.612,2735710.799,-0.01884,-0.32243,9.87967,9,4.8,6
27.634,2735710.818,-0.02841,-0.31765,9.88206,9,4.8,6
27.66,2735710.837,-0.02602,-0.332,9.87967,9,4.8,6
27.669,2735710.856,-0.01406,-0.31525,9.87967,9,4.8,6
27.687,2735710.875,-0.00927,-0.32722,9.87967,9,4.8,6
27.706,2735710.894,-0.00688,-0.32483,9.88684,9,4.8,6
27.725,2735710.913,-0.01406,-0.32483,9.87727,9,4.8,6
27.745,2735710.932,-0.01645,-0.3344,9.88445,9,4.8,6
27.764,2735710.951,-0.01645,-0.32483,9.87967,9,4.8,6
27.786,2735710.97,-0.01884,-0.32483,9.88684,9,4.8,6
27.801,2735710.989,-0.01645,-0.32004,9.88206,9,4.8,6
27.82,2735711.008,-0.01645,-0.31525,9.87967,9,4.8,6
27.84,2735711.027,-0.02363,-0.32243,9.88684,9,4.8,6
27.86,2735711.046,-0.01406,-0.33679,9.88445,9,4.8,6
27.878,2735711.065,-0.03081,-0.32004,9.87967,9,4.8,6
27.895,2735711.084,-0.01167,-0.31765,9.88684,9,4.8,6
27.92,2735711.103,-0.02124,-0.32483,9.88684,9,4.8,6
27.938,2735711.122,-0.01406,-0.332,9.88684,9,4.8,6
27.957,2735711.141,-0.01645,-0.32961,9.88206,9,4.8,6
27.976,2735711.16,-0.01406,-0.32961,9.87488,9,4.8,6
27.994,2735711.179,-0.01645,-0.32961,9.88445,9,4.8,6
28.01,2735711.198,-0.01406,-0.32483,9.88206,9,4.8,6
28.03,2735711.217,-0.01645,-0.32243,9.87727,9,4.8,6
28.052,2735711.236,-0.01645,-0.32961,9.87727,9,4.8,6
28.068,2735711.255,-0.01884,-0.32722,9.88206,9,4.8,6
28.088,2735711.274,-0.01645,-0.32722,9.87488,9,4.8,6
28.106,2735711.293,-0.02124,-0.332,9.88206,9,4.8,6
28.124,2735711.312,-0.01645,-0.32961,9.88206,9,4.8,6
28.143,2735711.331,-0.01884,-0.32483,9.88684,9,4.8,6
28.163,2735711.35,-0.01884,-0.31765,9.87488,9,4.8,6
28.182,2735711.369,-0.01406,-0.32243,9.88684,9,4.8,6
28.201,2735711.388,-0.02124,-0.32483,9.88206,9,4.8,6
28.219,2735711.407,-0.02124,-0.332,9.87967,9,4.8,6
28.24,2735711.426,-0.01406,-0.32483,9.88206,9,4.8,6
28.259,2735711.445,-0.02363,-0.31765,9.87727,9,4.8,6
28.277,2735711.464,-0.01406,-0.32004,9.87967,9,4.8,6
28.296,2735711.483,-0.02124,-0.32961,9.87488,9,4.8,6
28.315,2735711.502,-0.02124,-0.32722,9.87967,9,4.8,6
28.336,2735711.521,-0.02124,-0.3344,9.87727,9,4.8,6
28.353,2735711.54,-0.00688,-0.32004,9.88684,9,4.8,6
28.377,2735711.56,-0.02124,-0.31047,9.88445,9,4.8,6
28.395,2735711.579,-0.02124,-0.332,9.88206,9,4.8,6
28.41,2735711.598,-0.00209,-0.32004,9.88206,9,4.8,6
28.43,2735711.617,-0.01645,-0.33918,9.87249,9,4.8,6
28.449,2735711.636,-0.01884,-0.332,9.88206,9,4.8,6
28.467,2735711.655,-0.01167,-0.33918,9.87967,9,4.8,6
28.49,2735711.674,-0.02124,-0.32722,9.88206,9,4.8,6
28.506,2735711.693,-0.00927,-0.332,9.87727,9,4.8,6
28.524,2735711.712,-0.00927,-0.32243,9.87488,9,4.8,6
28.545,2735711.731,-0.00449,-0.32722,9.88924,9,4.8,6
28.567,2735711.75,-0.01645,-0.32243,9.87488,9,4.8,6
28.584,2735711.769,-0.01406,-0.32243,9.88206,9,4.8,6
28.6,2735711.788,-0.02363,-0.31765,9.87967,9,4.8,6
28.619,2735711.807,-0.02363,-0.32243,9.87967,9,4.8,6
28.641,2735711.826,-0.02124,-0.31765,9.88445,9,4.8,6
28.658,2735711.845,-0.01167,-0.32004,9.87727,9,4.8,6
28.678,2735711.864,-0.01645,-0.332,9.87967,9,4.8,6
28.695,2735711.883,-0.00927,-0.33679,9.87727,9,4.8,6
28.718,2735711.902,-0.01406,-0.32483,9.88206,9,4.8,6
28.738,2735711.921,-0.01645,-0.32483,9.87488,9,4.8,6
28.756,2735711.94,-0.02841,-0.3344,9.88206,9,4.8,6
28.775,2735711.959,-0.02602,-0.31525,9.88445,9,4.8,6
28.792,2735711.978,-0.01645,-0.31765,9.88206,9,4.8,6
28.809,2735711.997,-0.01645,-0.32004,9.88684,9,4.8,6
28.833,2735712.016,-0.01406,-0.32483,9.87488,9,4.8,6
28.847,2735712.035,-0.02363,-0.32722,9.88206,9,4.8,6
28.87,2735712.054,-0.01645,-0.32722,9.87009,9,4.8,6
28.886,2735712.073,-0.02602,-0.32483,9.88684,9,4.8,6
28.905,2735712.092,-0.01645,-0.31765,9.87488,9,4.8,6
28.924,2735712.111,-0.01167,-0.32722,9.88684,9,4.8,6
28.944,2735712.13,-0.01167,-0.32004,9.87727,9,4.8,6
28.963,2735712.149,-0.02841,-0.31525,9.87488,9,4.8,6
28.985,2735712.168,-0.01884,-0.32004,9.87727,9,4.8,6
28.999,2735712.187,-0.01884,-0.32722,9.88206,9,4.8,6
29.018,2735712.206,-0.01884,-0.32243,9.88206,9,4.8,6
29.038,2735712.225,-0.02841,-0.332,9.88445,9,4.8,6
29.061,2735712.244,-0.02124,-0.32004,9.88445,9,4.8,6
29.083,2735712.263,-0.01406,-0.31286,9.87727,9,4.8,6
29.096,2735712.282,-0.00927,-0.3344,9.87727,9,4.8,6
29.115,2735712.301,-0.01884,-0.32961,9.88445,9,4.8,6
29.134,2735712.32,-0.01167,-0.33679,9.87967,9,4.8,6
29.153,2735712.339,-0.01645,-0.32961,9.88206,9,4.8,6
29.172,2735712.358,-0.01645,-0.32722,9.8677,9,4.8,6
29.192,2735712.377,-0.01884,-0.32004,9.88924,9,4.8,6
29.209,2735712.396,-0.01645,-0.32243,9.87249,9,4.8,6
29.228,2735712.415,-0.01167,-0.32483,9.89402,9,4.8,6
29.247,2735712.435,-0.02124,-0.32483,9.87488,9,4.8,6
29.27,2735712.454,-0.02363,-0.31765,9.88206,9,4.8,6
29.285,2735712.473,-0.02363,-0.33679,9.87727,9,4.8,6
29.305,2735712.492,-0.02363,-0.33918,9.88206,9,4.8,6
29.326,2735712.511,-0.01406,-0.32961,9.87009,9,4.8,6
29.342,2735712.53,-0.01884,-0.32722,9.88206,9,4.8,6
29.365,2735712.549,-0.00927,-0.32722,9.87967,9,4.8,6
29.384,2735712.568,-0.01645,-0.32722,9.89163,9,4.8,6
29.399,2735712.587,-0.02363,-0.32483,9.87249,9,4.8,6
29.417,2735712.606,-0.01645,-0.31525,9.88445,9,4.8,6
29.436,2735712.625,-0.02363,-0.32483,9.87967,9,4.8,6
29.457,2735712.644,-0.01406,-0.32243,9.88445,9,4.8,6
29.477,2735712.663,-0.02363,-0.332,9.87967,9,4.8,6
29.494,2735712.682,-0.02363,-0.32243,9.88206,9,4.8,6
29.513,2735712.701,-0.03081,-0.34158,9.88684,9,4.8,6
29.536,2735712.72,-0.01406,-0.32243,9.87727,9,4.8,6
29.551,2735712.739,-0.00927,-0.32483,9.88206,9,4.8,6
29.572,2735712.758,-0.01167,-0.32243,9.88445,9,4.8,6
29.593,2735712.777,-0.02124,-0.32004,9.88445,9,4.8,6
29.607,2735712.796,-0.01406,-0.32483,9.87249,9,4.8,6
29.632,2735712.815,-0.01645,-0.31765,9.88206,9,4.8,6
29.646,2735712.834,-0.02363,-0.32483,9.87727,9,4.8,6
29.664,2735712.853,-0.03559,-0.32722,9.87967,9,4.8,6
29.685,2735712.872,-0.02363,-0.332,9.87727,9,4.8,6
29.704,2735712.891,-0.01884,-0.32243,9.87488,9,4.8,6
29.722,2735712.91,-0.01884,-0.32961,9.87967,9,4.8,6
29.741,2735712.929,-0.01645,-0.3344,9.88206,9,4.8,6
29.763,2735712.948,-0.01645,-0.31765,9.87009,9,4.8,6
29.781,2735712.967,-0.02363,-0.32961,9.88445,9,4.8,6
29.798,2735712.986,-0.02124,-0.31286,9.87488,9,4.8,6
29.82,2735713.005,-0.02363,-0.332,9.89163,9,4.8,6
29.841,2735713.024,-0.01884,-0.32243,9.87009,9,4.8,6
29.86,2735713.043,-0.02363,-0.32483,9.89163,9,4.8,6
29.874,2735713.062,-0.01167,-0.31525,9.8677,9,4.8,6
29.893,2735713.081,-0.01645,-0.31525,9.88206,9,4.8,6
29.914,2735713.1,-0.00688,-0.332,9.87727,9,4.8,6
29.937,2735713.119,-0.02363,-0.32961,9.88206,9,4.8,6
29.955,2735713.138,-0.01167,-0.32961,9.87967,9,4.8,6
29.971,2735713.157,-0.02363,-0.31525,9.87727,9,4.8,6
29.994,2735713.176,-0.02363,-0.30568,9.87488,9,4.8,6
30.007,2735713.195,-0.02841,-0.32243,9.87967,9,4.8,6
30.028,2735713.214,-0.00927,-0.32483,9.87967,9,4.8,6
30.047,2735713.233,-0.01645,-0.32961,9.88206,9,4.8,6
30.071,2735713.252,-0.01406,-0.32483,9.87009,9,4.8,6
30.091,2735713.271,-0.02841,-0.32961,9.88924,9,4.8,6
30.102,2735713.29,-0.01406,-0.32722,9.87009,9,4.8,6
30.121,2735713.309,-0.01167,-0.3344,9.88924,9,4.8,6
30.141,2735713.329,-0.01884,-0.3344,9.87727,9,4.8,6
30.16,2735713.348,-0.00688,-0.31765,9.87727,9,4.8,6
30.178,2735713.367,-0.02124,-0.32243,9.88445,9,4.8,6
30.197,2735713.386,-0.01645,-0.32483,9.88445,9,4.8,6
30.216,2735713.405,-0.02124,-0.32722,9.87727,9,4.8,6
30.237,2735713.424,-0.03559,-0.34158,9.87727,9,4.8,6
30.259,2735713.443,-0.01645,-0.32004,9.87727,9,4.8,6
30.275,2735713.462,-0.01645,-0.32004,9.87249,9,4.8,6
30.291,2735713.481,-0.01406,-0.31765,9.87249,9,4.8,6
30.313,2735713.5,-0.00688,-0.3344,9.87967,9,4.8,6
30.332,2735713.519,-0.01167,-0.32961,9.87967,9,4.8,6
30.354,2735713.538,-0.01884,-0.32243,9.87727,9,4.8,6
30.374,2735713.557,-0.01645,-0.32243,9.87488,9,4.8,6
30.389,2735713.576,-0.01884,-0.32243,9.87727,9,4.8,6
30.411,2735713.595,-0.00927,-0.31286,9.88206,9,4.8,6
30.426,2735713.614,-0.01645,-0.32243,9.88206,9,4.8,6
30.445,2735713.633,-0.01645,-0.32243,9.87967,9,4.8,6
30.467,2735713.652,-0.01406,-0.3344,9.87249,9,4.8,6
30.485,2735713.671,-0.01645,-0.32004,9.87249,9,4.8,6
30.504,2735713.69,-0.01645,-0.32722,9.88206,9,4.8,6
30.521,2735713.709,-0.01406,-0.32243,9.87488,9,4.8,6
30.539,2735713.728,-0.01645,-0.34397,9.87488,9,4.8,6
30.56,2735713.747,-0.01884,-0.32483,9.87488,9,4.8,6
30.58,2735713.766,-0.01884,-0.33918,9.87488,9,4.8,6
30.596,2735713.785,-0.00927,-0.32483,9.87967,9,4.8,6
30.616,2735713.804,-0.01645,-0.32483,9.87488,9,4.8,6
30.639,2735713.823,-0.01406,-0.31765,9.88445,9,4.8,6
30.658,2735713.842,-0.02124,-0.31765,9.88206,9,4.8,6
30.675,2735713.861,-0.01884,-0.32722,9.88445,9,4.8,6
30.694,2735713.88,-0.02124,-0.32243,9.87727,9,4.8,6
30.713,2735713.899,-0.01406,-0.31525,9.87488,9,4.8,6
30.734,2735713.918,-0.01167,-0.31765,9.87488,9,4.8,6
30.753,2735713.937,-0.02602,-0.32004,9.87967,9,4.8,6
30.77,2735713.956,-0.02124,-0.32961,9.87488,9,4.8,6
30.788,2735713.975,-0.01645,-0.32961,9.87488,9,4.8,6
30.81,2735713.994,-0.01884,-0.31286,9.88445,9,4.8,6
30.827,2735714.013,-0.01645,-0.332,9.88445,9,4.8,6
30.845,2735714.032,-0.01406,-0.332,9.87488,9,4.8,6
30.868,2735714.051,-0.01406,-0.31525,9.87009,9,4.8,6
30.883,2735714.07,-0.00688,-0.32722,9.88206,9,4.8,6
30.902,2735714.089,-0.01884,-0.32243,9.87727,9,4.8,6
30.919,2735714.108,-0.01884,-0.32722,9.88684,9,4.8,6
30.938,2735714.127,-0.01884,-0.32961,9.88206,9,4.8,6
30.96,2735714.146,-0.02124,-0.32243,9.88684,9,4.8,6
30.979,2735714.165,-0.01884,-0.32004,9.87727,9,4.8,6
30.998,2735714.184,-0.02124,-0.3344,9.88684,9,4.8,6
31.016,2735714.203,-0.01645,-0.33679,9.88206,9,4.8,6
31.039,2735714.223,-0.01645,-0.32243,9.87967,9,4.8,6
31.059,2735714.242,-0.00927,-0.32722,9.88445,9,4.8,6
31.081,2735714.261,-0.02363,-0.33918,9.88206,9,4.8,6
31.09,2735714.28,-0.03559,-0.31765,9.88206,9,4.8,6
31.111,2735714.299,-0.02124,-0.332,9.88684,9,4.8,6
31.131,2735714.318,-0.01406,-0.31765,9.88206,9,4.8,6
31.149,2735714.337,-0.02124,-0.31765,9.87967,9,4.8,6
31.169,2735714.356,-0.01645,-0.32243,9.87727,9,4.8,6
31.188,2735714.375,-0.02124,-0.32243,9.88206,9,4.8,6
31.207,2735714.394,-0.01167,-0.33679,9.88684,9,4.8,6
31.224,2735714.413,-0.02841,-0.32961,9.88206,9,4.8,6
31.248,2735714.432,-0.02363,-0.32722,9.87967,9,4.8,6
31.263,2735714.451,-0.01645,-0.32004,9.87967,9,4.8,6
31.283,2735714.47,-0.01406,-0.32722,9.88924,9,4.8,6
31.301,2735714.489,-0.02124,-0.31765,9.86531,9,4.8,6
31.319,2735714.508,-0.02363,-0.31765,9.88206,9,4.8,6
31.34,2735714.527,-0.01645,-0.32004,9.87488,9,4.8,6
31.36,2735714.546,-0.01167,-0.32722,9.88206,9,4.8,6
31.378,2735714.565,-0.01645,-0.32483,9.88445,9,4.8,6
31.396,2735714.584,-0.02124,-0.332,9.87967,9,4.8,6
31.417,2735714.603,-0.02124,-0.32961,9.87967,9,4.8,6
31.435,2735714.622,-0.01884,-0.332,9.88206,9,4.8,6
31.457,2735714.641,-0.00927,-0.32004,9.88206,9,4.8,6
31.477,2735714.66,-0.01645,-0.32961,9.87727,9,4.8,6
31.493,2735714.679,-0.01167,-0.32961,9.87967,9,4.8,6
31.51,2735714.698,-0.01406,-0.32722,9.87967,9,4.8,6
31.53,2735714.717,-0.02124,-0.32483,9.87488,9,4.8,6
31.549,2735714.736,-0.01884,-0.32004,9.88924,9,4.8,6
31.57,2735714.755,-0.02124,-0.32243,9.87488,9,4.8,6
31.591,2735714.774,-0.02363,-0.32722,9.88445,9,4.8,6
31.608,2735714.793,-0.02124,-0.32961,9.88924,9,4.8,6
31.625,2735714.812,-0.02363,-0.32722,9.88445,9,4.8,6
31.659,2735714.831,-0.01645,-0.32004,9.87727,9,4.8,6
31.664,2735714.85,-0.00927,-0.32961,9.88684,9,4.8,6
31.682,2735714.869,-0.01406,-0.32004,9.88684,9,4.8,6
31.701,2735714.888,-0.01406,-0.32483,9.88924,9,4.8,6
31.718,2735714.907,-0.01645,-0.32483,9.87727,9,4.8,6
31.738,2735714.926,-0.00927,-0.32004,9.88445,9,4.8,6
31.757,2735714.945,-0.01884,-0.332,9.88445,9,4.8,6
31.777,2735714.964,-0.01167,-0.31525,9.88206,9,4.8,6
31.796,2735714.983,-0.02363,-0.32722,9.87967,9,4.8,6
31.82,2735715.002,-0.00927,-0.31765,9.88445,9,4.8,6
31.838,2735715.021,-0.01645,-0.32961,9.87488,9,4.8,6
31.854,2735715.04,-0.01406,-0.31765,9.88206,9,4.8,6
31.872,2735715.059,-0.01406,-0.332,9.87727,9,4.8,6
31.892,2735715.078,-0.01884,-0.32483,9.88684,9,4.8,6
31.909,2735715.097,-0.02363,-0.31765,9.88684,9,4.8,6
31.929,2735715.117,-0.00449,-0.32243,9.88684,9,4.8,6
31.95,2735715.136,-0.00688,-0.31286,9.87727,9,4.8,6
31.968,2735715.155,-0.02363,-0.3344,9.87967,9,4.8,6
31.989,2735715.174,-0.01406,-0.32243,9.88445,9,4.8,6
32.009,2735715.193,-0.02124,-0.31765,9.87967,9,4.8,6
32.025,2735715.212,-0.00688,-0.32961,9.87967,9,4.8,6
32.046,2735715.231,-0.01167,-0.32004,9.88206,9,4.8,6
32.063,2735715.25,-0.01406,-0.32722,9.8677,9,4.8,6
32.083,2735715.269,-0.01406,-0.32961,9.88924,9,4.8,6
32.1,2735715.288,-0.01645,-0.3344,9.88206,9,4.8,6
32.118,2735715.307,-0.02124,-0.30808,9.88445,9,4.8,6
32.137,2735715.326,-0.02363,-0.32483,9.87249,9,4.8,6
32.157,2735715.345,-0.00927,-0.33918,9.87967,9,4.8,6
32.176,2735715.364,-0.01884,-0.32961,9.87488,9,4.8,6
32.195,2735715.383,-0.02124,-0.32243,9.87967,9,4.8,6
32.216,2735715.402,-0.01167,-0.32722,9.87727,9,4.8,6
32.238,2735715.421,-0.02124,-0.32483,9.87727,9,4.8,6
32.257,2735715.44,-0.01645,-0.31765,9.88445,9,4.8,6
32.275,2735715.459,-0.00688,-0.31286,9.87967,9,4.8,6
32.291,2735715.478,-0.01884,-0.32722,9.87727,9,4.8,6
32.31,2735715.497,-0.01167,-0.32961,9.88445,9,4.8,6
32.329,2735715.516,-0.01406,-0.31525,9.87488,9,4.8,6
32.348,2735715.535,-0.01884,-0.32004,9.88445,9,4.8,6
32.366,2735715.554,-0.00688,-0.32961,9.87727,9,4.8,6
32.386,2735715.573,-0.01884,-0.33679,9.88445,9,4.8,6
32.404,2735715.592,-0.01406,-0.31286,9.87488,9,4.8,6
32.423,2735715.611,-0.02363,-0.32004,9.88206,9,4.8,6
32.443,2735715.63,-0.02363,-0.32483,9.88684,9,4.8,6
32.462,2735715.649,-0.01645,-0.32483,9.8677,9,4.8,6
32.484,2735715.668,-0.00927,-0.32243,9.89163,9,4.8,6
32.5,2735715.687,-0.01645,-0.31286,9.8677,9,4.8,6
32.518,2735715.706,-0.01167,-0.32004,9.89163,9,4.8,6
32.537,2735715.725,-0.02124,-0.32243,9.87967,9,4.8,6
32.56,2735715.744,-0.01884,-0.32243,9.89163,9,4.8,6
32.577,2735715.763,-0.02363,-0.32961,9.86531,9,4.8,6
32.598,2735715.782,-0.00688,-0.332,9.88684,9,4.8,6
32.618,2735715.801,-0.01406,-0.33679,9.87967,9,4.8,6
32.634,2735715.82,-0.01167,-0.31765,9.88206,9,4.8,6
32.655,2735715.839,-0.01884,-0.32243,9.87488,9,4.8,6
32.673,2735715.858,-0.02124,-0.3344,9.88206,9,4.8,6
32.691,2735715.877,-0.00688,-0.32961,9.88206,9,4.8,6
32.711,2735715.896,-0.00688,-0.31765,9.87727,9,4.8,6
32.729,2735715.915,-0.01406,-0.32243,9.87009,9,4.8,6
32.748,2735715.934,-0.01645,-0.332,9.87249,9,4.8,6
32.766,2735715.953,-0.00688,-0.32961,9.88924,9,4.8,6
32.786,2735715.972,-0.01406,-0.31286,9.87727,9,4.8,6
32.807,2735715.991,-0.01406,-0.32004,9.89163,9,4.8,6
32.824,2735716.011,-0.01167,-0.32483,9.87488,9,4.8,6
32.843,2735716.03,-0.00927,-0.32004,9.89163,9,4.8,6
32.863,2735716.049,-0.01645,-0.32722,9.87488,9,4.8,6
32.88,2735716.068,-0.02124,-0.30329,9.87727,9,4.8,6
32.9,2735716.087,-0.02363,-0.31765,9.87488,9,4.8,6
32.92,2735716.106,-0.01406,-0.32004,9.88206,9,4.8,6
32.936,2735716.125,-0.01884,-0.31765,9.88684,9,4.8,6
32.961,2735716.144,-0.01406,-0.32004,9.88445,9,4.8,6
32.976,2735716.163,-0.00927,-0.31525,9.88684,9,4.8,6
32.994,2735716.182,-0.01645,-0.32722,9.87488,9,4.8,6
33.015,2735716.201,-0.02602,-0.32483,9.88445,9,4.8,6
33.037,2735716.22,-0.01884,-0.32243,9.87249,9,4.8,6
33.056,2735716.239,-0.02363,-0.32483,9.87967,9,4.8,6
33.07,2735716.258,-0.02363,-0.3344,9.88206,9,4.8,6
33.089,2735716.277,-0.02602,-0.31765,9.88924,9,4.8,6
33.107,2735716.296,-0.02124,-0.32483,9.87488,9,4.8,6
33.128,2735716.315,-0.01167,-0.32004,9.87967,9,4.8,6
33.147,2735716.334,-0.01884,-0.32243,9.87967,9,4.8,6
33.166,2735716.353,-0.02124,-0.32004,9.87727,9,4.8,6
33.184,2735716.372,-0.01406,-0.32961,9.87009,9,4.8,6
33.204,2735716.391,-0.01884,-0.33679,9.88206,9,4.8,6
33.223,2735716.41,-0.01884,-0.32722,9.88445,9,4.8,6
33.241,2735716.429,-0.02124,-0.32004,9.88445,9,4.8,6
33.261,2735716.448,-0.01884,-0.32004,9.88684,9,4.8,6
33.284,2735716.467,-0.02124,-0.31765,9.88206,9,4.8,6
33.298,2735716.486,-0.01167,-0.32722,9.88684,9,4.8,6
33.316,2735716.505,-0.01645,-0.3344,9.87967,9,4.8,6
33.338,2735716.524,-0.01167,-0.32722,9.87727,9,4.8,6
33.357,2735716.543,-0.02124,-0.33918,9.88924,9,4.8,6
33.378,2735716.562,-0.01406,-0.3344,9.87488,9,4.8,6
33.395,2735716.581,-0.02363,-0.33679,9.87249,9,4.8,6
33.414,2735716.6,-0.01884,-0.32483,9.87967,9,4.8,6
33.431,2735716.619,-0.01645,-0.32483,9.88684,9,4.8,6
33.451,2735716.638,-0.01884,-0.32243,9.8677,9,4.8,6
33.475,2735716.657,-0.00927,-0.32483,9.88684,9,4.8,6
33.492,2735716.676,-0.00449,-0.32483,9.87727,9,4.8,6
33.509,2735716.695,-0.01167,-0.32483,9.89163,9,4.8,6
33.527,2735716.714,-0.01167,-0.332,9.87727,9,4.8,6
33.546,2735716.733,-0.00927,-0.3344,9.87967,9,4.8,6
33.567,2735716.752,-0.02363,-0.34397,9.86292,9,4.8,6
33.586,2735716.771,-0.01884,-0.32961,9.88924,9,4.8,6
33.606,2735716.79,-0.01645,-0.32243,9.87488,9,4.8,6
33.621,2735716.809,-0.01167,-0.3344,9.88684,9,4.8,6
33.659,2735716.828,-0.03081,-0.3344,9.88445,9,4.8,6
33.664,2735716.847,-0.01406,-0.32961,9.88684,9,4.8,6
33.679,2735716.866,-0.01406,-0.33918,9.87727,9,4.8,6
33.698,2735716.885,-0.02363,-0.3344,9.87249,9,4.8,6
33.716,2735716.905,-0.02363,-0.3344,9.88924,9,4.8,6
33.737,2735716.924,-0.00927,-0.31765,9.87727,9,4.8,6
33.756,2735716.943,-0.03081,-0.31765,9.88206,9,4.8,6
33.778,2735716.962,-0.01645,-0.31765,9.88445,9,4.8,6
33.794,2735716.981,-0.01167,-0.32483,9.87967,9,4.8,6
33.813,2735717.0,-0.01645,-0.32243,9.88445,9,4.8,6
33.831,2735717.019,-0.02363,-0.32483,9.87009,9,4.8,6
33.851,2735717.038,-0.01884,-0.31765,9.88445,9,4.8,6
33.87,2735717.057,-0.01645,-0.32243,9.87488,9,4.8,6
33.887,2735717.076,-0.01406,-0.332,9.87967,9,4.8,6
33.907,2735717.095,-0.02363,-0.32004,9.87967,9,4.8,6
33.927,2735717.114,-0.02363,-0.32004,9.87727,9,4.8,6
33.945,2735717.133,-0.02841,-0.30808,9.87488,9,4.8,6
33.964,2735717.152,-0.02602,-0.32243,9.88206,9,4.8,6
33.984,2735717.171,-0.01884,-0.32243,9.87727,9,4.8,6
34.006,2735717.19,-0.00927,-0.31765,9.88445,9,4.8,6
34.021,2735717.209,-0.00927,-0.31525,9.87488,9,4.8,6
34.041,2735717.228,-0.01406,-0.31525,9.87967,9,4.8,6
34.06,2735717.247,-0.01406,-0.31765,9.87727,9,4.8,6
34.079,2735717.266,-0.00688,-0.32243,9.87488,9,4.8,6
34.097,2735717.285,-0.01406,-0.32483,9.88684,9,4.8,6
34.116,2735717.304,-0.00927,-0.32961,9.87727,9,4.8,6
34.137,2735717.323,-0.01406,-0.32483,9.88206,9,4.8,6
34.156,2735717.342,-0.01645,-0.32243,9.87249,9,4.8,6
34.173,2735717.361,-0.02363,-0.31047,9.89163,9,4.8,6
34.191,2735717.38,-0.00449,-0.31047,9.87967,9,4.8,6
34.212,2735717.399,-0.01884,-0.332,9.89163,9,4.8,6
34.235,2735717.418,-0.01645,-0.32243,9.87488,9,4.8,6
34.25,2735717.437,-0.02124,-0.31047,9.88445,9,4.8,6
34.269,2735717.456,-0.02363,-0.32004,9.87488,9,4.8,6
34.288,2735717.475,-0.01645,-0.31525,9.88206,9,4.8,6
34.307,2735717.494,-0.01884,-0.32722,9.87967,9,4.8,6
34.325,2735717.513,-0.01406,-0.31525,9.88206,9,4.8,6
34.345,2735717.532,-0.00449,-0.32722,9.87009,9,4.8,6
34.364,2735717.551,-0.01884,-0.32722,9.88206,9,4.8,6
34.383,2735717.57,-0.01406,-0.32483,9.88206,9,4.8,6
34.405,2735717.589,-0.01645,-0.31765,9.88445,9,4.8,6
34.42,2735717.608,-0.01884,-0.32961,9.87009,9,4.8,6
34.44,2735717.627,-0.02124,-0.32004,9.87967,9,4.8,6
34.459,2735717.646,-0.01167,-0.32483,9.88206,9,4.8,6
34.479,2735717.665,-0.01884,-0.32961,9.88206,9,4.8,6
34.498,2735717.684,-0.00927,-0.32004,9.87727,9,4.8,6
34.518,2735717.703,-0.01645,-0.32722,9.87488,9,4.8,6
34.538,2735717.722,-0.01884,-0.31765,9.87009,9,4.8,6
34.554,2735717.741,-0.01406,-0.32483,9.88445,9,4.8,6
34.574,2735717.76,-0.01167,-0.31525,9.87488,9,4.8,6
34.594,2735717.779,-0.02124,-0.32243,9.87727,9,4.8,6
34.611,2735717.799,-0.01167,-0.32722,9.87488,9,4.8,6
34.633,2735717.818,-0.01645,-0.32961,9.88445,9,4.8,6
34.65,2735717.837,-0.00688,-0.32243,9.88924,9,4.8,6
34.669,2735717.856,-0.01884,-0.34397,9.88924,9,4.8,6
34.692,2735717.875,-0.01645,-0.30329,9.8677,9,4.8,6
34.708,2735717.894,-0.01645,-0.32483,9.88684,9,4.8,6
34.726,2735717.913,-0.01167,-0.31286,9.87488,9,4.8,6
34.746,2735717.932,-0.01406,-0.32961,9.88684,9,4.8,6
34.765,2735717.951,-0.02124,-0.33918,9.87488,9,4.8,6
34.787,2735717.97,-0.02124,-0.32483,9.88684,9,4.8,6
34.804,2735717.989,-0.01167,-0.332,9.86531,9,4.8,6
34.82,2735718.008,-0.00688,-0.32722,9.88924,9,4.8,6
34.838,2735718.027,-0.02602,-0.33679,9.86052,9,4.8,6
34.86,2735718.046,-0.02124,-0.33918,9.88924,9,4.8,6
34.878,2735718.065,-0.01645,-0.32722,9.88206,9,4.8,6
34.895,2735718.084,-0.01645,-0.32004,9.88684,9,4.8,6
34.92,2735718.103,-0.01645,-0.32961,9.88206,9,4.8,6
34.935,2735718.122,-0.01645,-0.32961,9.87488,9,4.8,6
34.959,2735718.141,-0.00688,-0.32961,9.87967,9,4.8,6
34.973,2735718.16,-0.01884,-0.32004,9.87727,9,4.8,6
34.993,2735718.179,-0.02363,-0.31525,9.88206,9,4.8,6
35.011,2735718.198,-0.01406,-0.332,9.87727,9,4.8,6
35.034,2735718.217,-0.02124,-0.32722,9.88206,9,4.8,6
35.049,2735718.236,-0.02363,-0.332,9.88445,9,4.8,6
35.073,2735718.255,-0.01406,-0.332,9.88445,9,4.8,6
35.091,2735718.274,-0.01167,-0.31047,9.87488,9,4.8,6
35.105,2735718.293,-0.01884,-0.32961,9.87967,9,4.8,6
35.124,2735718.312,-0.01884,-0.332,9.88684,9,4.8,6
35.142,2735718.331,-0.02602,-0.32483,9.87727,9,4.8,6
35.163,2735718.35,-0.01645,-0.32243,9.87488,9,4.8,6
35.181,2735718.369,-0.01406,-0.32004,9.88445,9,4.8,6
35.204,2735718.388,-0.02363,-0.32722,9.87727,9,4.8,6
35.219,2735718.407,-0.01884,-0.32243,9.88924,9,4.8,6
35.24,2735718.426,-0.01884,-0.32483,9.87727,9,4.8,6
35.259,2735718.445,-0.01406,-0.31765,9.87727,9,4.8,6
35.276,2735718.464,-0.01884,-0.32722,9.88206,9,4.8,6
35.295,2735718.483,-0.01406,-0.33679,9.88206,9,4.8,6
35.317,2735718.502,-0.02124,-0.33918,9.87967,9,4.8,6
35.335,2735718.521,-0.02124,-0.32483,9.87488,9,4.8,6
35.357,2735718.54,-0.02124,-0.32483,9.87967,9,4.8,6
35.374,2735718.559,-0.02602,-0.33679,9.87009,9,4.8,6
35.39,2735718.578,-0.02363,-0.332,9.88924,9,4.8,6
35.409,2735718.597,-0.01167,-0.32722,9.87727,9,4.8,6
35.429,2735718.616,-0.0332,-0.31765,9.88206,9,4.8,6
35.447,2735718.635,-0.01167,-0.32243,9.87727,9,4.8,6
35.468,2735718.654,-0.01884,-0.332,9.87727,9,4.8,6
35.49,2735718.673,-0.02124,-0.32004,9.88445,9,4.8,6
35.506,2735718.693,-0.02363,-0.31765,9.87727,9,4.8,6
35.525,2735718.712,-0.01884,-0.32243,9.87488,9,4.8,6
35.543,2735718.731,-0.02363,-0.31525,9.88206,9,4.8,6
35.564,2735718.75,-0.01645,-0.30808,9.87249,9,4.8,6
35.586,2735718.769,-0.01645,-0.31765,9.87249,9,4.8,6
35.6,2735718.788,-0.01884,-0.33679,9.88684,9,4.8,6
35.619,2735718.807,-0.01884,-0.32004,9.87727,9,4.8,6
35.657,2735718.826,-0.02602,-0.31525,9.88684,9,4.8,6
35.659,2735718.845,-0.01884,-0.32243,9.88206,9,4.8,6
35.674,2735718.864,-0.00688,-0.32004,9.88684,9,4.8,6
35.695,2735718.883,-0.02602,-0.32961,9.87009,9,4.8,6
35.716,2735718.902,-0.01167,-0.32722,9.88684,9,4.8,6
35.733,2735718.921,-0.02124,-0.32722,9.88445,9,4.8,6
35.752,2735718.94,-0.02124,-0.332,9.87488,9,4.8,6
35.777,2735718.959,-0.02124,-0.32722,9.88684,9,4.8,6
35.793,2735718.978,-0.01167,-0.31765,9.88684,9,4.8,6
35.81,2735718.997,-0.01167,-0.32722,9.88445,9,4.8,6
35.83,2735719.016,-0.02602,-0.32483,9.89163,9,4.8,6
35.848,2735719.035,-0.01884,-0.31765,9.87967,9,4.8,6
35.867,2735719.054,-0.02124,-0.32483,9.87727,9,4.8,6
35.887,2735719.073,-0.01406,-0.32961,9.87488,9,4.8,6
35.91,2735719.092,-0.01406,-0.32961,9.88206,9,4.8,6
35.923,2735719.111,-0.00927,-0.32243,9.87009,9,4.8,6
35.943,2735719.13,-0.01645,-0.32961,9.88445,9,4.8,6
35.963,2735719.149,-0.01167,-0.31765,9.87009,9,4.8,6
35.985,2735719.168,-0.01645,-0.32722,9.89402,9,4.8,6
36.001,2735719.187,-0.01645,-0.3344,9.87727,9,4.8,6
36.018,2735719.206,-0.01884,-0.33918,9.88684,9,4.8,6
36.038,2735719.225,-0.01406,-0.32961,9.87967,9,4.8,6
36.061,2735719.244,-0.01645,-0.32243,9.87967,9,4.8,6
36.085,2735719.263,-0.01406,-0.31286,9.87727,9,4.8,6
36.093,2735719.282,-0.01167,-0.32243,9.87967,9,4.8,6
36.115,2735719.301,-0.01884,-0.32483,9.87488,9,4.8,6
36.134,2735719.32,-0.01406,-0.332,9.88684,9,4.8,6
36.153,2735719.339,-0.01645,-0.32722,9.87727,9,4.8,6
36.171,2735719.358,-0.02124,-0.32004,9.88206,9,4.8,6
36.19,2735719.377,-0.01884,-0.32004,9.87488,9,4.8,6
36.209,2735719.396,-0.01884,-0.32004,9.88206,9,4.8,6
36.23,2735719.415,-0.02841,-0.32243,9.88206,9,4.8,6
36.25,2735719.434,-0.02124,-0.32722,9.87727,9,4.8,6
36.27,2735719.453,-0.01645,-0.30568,9.87727,9,4.8,6
36.285,2735719.472,-0.01645,-0.32483,9.87967,9,4.8,6
36.309,2735719.491,-0.01645,-0.32722,9.87727,9,4.8,6
36.323,2735719.51,-0.01406,-0.332,9.8677,9,4.8,6
36.342,2735719.529,-0.01645,-0.32243,9.87249,9,4.8,6
36.362,2735719.548,-0.01645,-0.32004,9.88684,9,4.8,6
36.38,2735719.567,-0.01645,-0.32722,9.88206,9,4.8,6
36.398,2735719.587,-0.01645,-0.32961,9.88684,9,4.8,6
36.417,2735719.606,-0.01406,-0.32483,9.87727,9,4.8,6
36.436,2735719.625,-0.01406,-0.32004,9.88445,9,4.8,6
36.457,2735719.644,-0.01645,-0.32722,9.87727,9,4.8,6
36.477,2735719.663,-0.01406,-0.34158,9.88684,9,4.8,6
36.495,2735719.682,-0.01645,-0.32243,9.87967,9,4.8,6
36.514,2735719.701,-0.01884,-0.31765,9.87967,9,4.8,6
36.533,2735719.72,-0.02363,-0.31765,9.88684,9,4.8,6
36.551,2735719.739,-0.01167,-0.31286,9.88445,9,4.8,6
36.573,2735719.758,-0.01406,-0.31525,9.87488,9,4.8,6
36.591,2735719.777,-0.01884,-0.31765,9.87967,9,4.8,6
36.608,2735719.796,-0.02124,-0.32004,9.87727,9,4.8,6
36.628,2735719.815,-0.01884,-0.31765,9.87727,9,4.8,6
36.65,2735719.834,-0.01645,-0.31047,9.87967,9,4.8,6
36.669,2735719.853,-0.01167,-0.32004,9.87727,9,4.8,6
36.688,2735719.872,-0.01645,-0.32483,9.88206,9,4.8,6
36.705,2735719.891,-0.02363,-0.32243,9.87727,9,4.8,6
36.722,2735719.91,-0.01167,-0.32483,9.87967,9,4.8,6
36.742,2735719.929,-0.01406,-0.32483,9.87488,9,4.8,6
36.761,2735719.948,-0.01406,-0.32961,9.88445,9,4.8,6
36.78,2735719.967,-0.03559,-0.32483,9.88445,9,4.8,6
36.798,2735719.986,-0.01406,-0.32483,9.87488,9,4.8,6
36.818,2735720.005,-0.00209,-0.33679,9.89163,9,4.8,6
36.841,2735720.024,-0.00688,-0.32243,9.87488,9,4.8,6
36.856,2735720.043,-0.01884,-0.32004,9.88206,9,4.8,6
36.877,2735720.062,-0.01167,-0.332,9.88206,9,4.8,6
36.893,2735720.081,-0.02124,-0.34158,9.89402,9,4.8,6
36.916,2735720.1,-0.01167,-0.32004,9.88206,9,4.8,6
36.933,2735720.119,-0.02841,-0.31047,9.87009,9,4.8,6
36.956,2735720.138,-0.01406,-0.32243,9.88684,9,4.8,6
36.97,2735720.157,-0.01884,-0.32483,9.87967,9,4.8,6
36.993,2735720.176,-0.01167,-0.32961,9.88684,9,4.8,6
37.01,2735720.195,-0.01884,-0.3344,9.87249,9,4.8,6
37.027,2735720.214,-0.01884,-0.32961,9.88206,9,4.8,6
37.046,2735720.233,-0.01406,-0.32483,9.87488,9,4.8,6
37.066,2735720.252,-0.01645,-0.3344,9.88206,9,4.8,6
37.091,2735720.271,0.0003,-0.32483,9.88206,9,4.8,6
37.102,2735720.29,-0.01884,-0.32961,9.87727,9,4.8,6
37.121,2735720.309,-0.01884,-0.31765,9.87967,9,4.8,6
37.14,2735720.328,-0.01645,-0.32004,9.88445,9,4.8,6
37.16,2735720.347,-0.00449,-0.32483,9.87967,9,4.8,6
37.178,2735720.366,-0.00688,-0.31525,9.87967,9,4.8,6
37.197,2735720.385,-0.02124,-0.32004,9.87967,9,4.8,6
37.217,2735720.404,-0.01167,-0.32483,9.87249,9,4.8,6
37.237,2735720.423,-0.01884,-0.33679,9.88445,9,4.8,6
37.261,2735720.442,-0.02363,-0.32961,9.87967,9,4.8,6
37.277,2735720.461,-0.02602,-0.332,9.88445,9,4.8,6
37.294,2735720.481,-0.01884,-0.32722,9.87727,9,4.8,6
37.312,2735720.5,-0.02363,-0.32722,9.88445,9,4.8,6
37.331,2735720.519,-0.01167,-0.3344,9.87488,9,4.8,6
37.354,2735720.538,-0.01884,-0.33918,9.8677,9,4.8,6
37.374,2735720.557,-0.02124,-0.32483,9.87727,9,4.8,6
37.391,2735720.576,-0.01645,-0.31525,9.88684,9,4.8,6
37.407,2735720.595,-0.01167,-0.32243,9.87727,9,4.8,6
37.425,2735720.614,-0.01167,-0.32483,9.87967,9,4.8,6
37.444,2735720.633,-0.02363,-0.32483,9.87009,9,4.8,6
37.467,2735720.652,-0.02363,-0.32004,9.87967,9,4.8,6
37.486,2735720.671,-0.01645,-0.332,9.87727,9,4.8,6
37.503,2735720.69,-0.02363,-0.32243,9.87967,9,4.8,6
37.52,2735720.709,-0.02602,-0.32961,9.87249,9,4.8,6
37.54,2735720.728,-0.02363,-0.32483,9.88684,9,4.8,6
37.559,2735720.747,-0.02602,-0.32243,9.87009,9,4.8,6
37.579,2735720.766,-0.01884,-0.32722,9.87967,9,4.8,6
37.596,2735720.785,-0.02363,-0.32722,9.88206,9,4.8,6
37.62,2735720.804,-0.03081,-0.32004,9.88445,9,4.8,6
37.657,2735720.823,-0.01884,-0.32961,9.87727,9,4.8,6
37.658,2735720.842,-0.01884,-0.32483,9.87967,9,4.8,6
37.673,2735720.861,-0.02124,-0.32004,9.87249,9,4.8,6
37.691,2735720.88,-0.00449,-0.32961,9.89642,9,4.8,6
37.712,2735720.899,-0.02841,-0.32243,9.87249,9,4.8,6
37.73,2735720.918,-0.02124,-0.32243,9.89163,9,4.8,6
37.749,2735720.937,-0.01884,-0.32004,9.87249,9,4.8,6
37.768,2735720.956,-0.01167,-0.32243,9.89642,9,4.8,6
37.787,2735720.975,-0.01645,-0.32722,9.87727,9,4.8,6
37.807,2735720.994,-0.02363,-0.32243,9.88684,9,4.8,6
37.824,2735721.013,-0.02602,-0.32004,9.87009,9,4.8,6
37.843,2735721.032,-0.02124,-0.32483,9.88924,9,4.8,6
37.864,2735721.051,-0.01645,-0.32483,9.88445,9,4.8,6
37.882,2735721.07,-0.01884,-0.332,9.88924,9,4.8,6
37.902,2735721.089,-0.02124,-0.32961,9.88684,9,4.8,6
37.92,2735721.108,-0.01645,-0.32004,9.87967,9,4.8,6
37.94,2735721.127,-0.01645,-0.33679,9.87488,9,4.8,6
37.961,2735721.146,-0.01406,-0.332,9.89163,9,4.8,6
37.977,2735721.165,-0.02363,-0.32722,9.87488,9,4.8,6
37.996,2735721.184,-0.00927,-0.32722,9.87727,9,4.8,6
38.015,2735721.203,-0.01167,-0.31286,9.88684,9,4.8,6
38.036,2735721.222,-0.01167,-0.31525,9.87727,9,4.8,6
38.054,2735721.241,-0.01645,-0.3344,9.87727,9,4.8,6
38.073,2735721.26,-0.01167,-0.34158,9.87727,9,4.8,6
38.09,2735721.279,-0.01645,-0.31765,9.88684,9,4.8,6
38.11,2735721.298,-0.01645,-0.32722,9.88206,9,4.8,6
38.13,2735721.317,-0.01406,-0.31286,9.88684,9,4.8,6
38.148,2735721.336,-0.02363,-0.32722,9.87488,9,4.8,6
38.168,2735721.355,-0.02124,-0.32004,9.88206,9,4.8,6
38.186,2735721.375,-0.0332,-0.32483,9.87967,9,4.8,6
38.207,2735721.394,-0.01645,-0.32961,9.88445,9,4.8,6
38.224,2735721.413,-0.02124,-0.32722,9.87249,9,4.8,6
38.244,2735721.432,-0.00927,-0.3344,9.88684,9,4.8,6
38.27,2735721.451,-0.01167,-0.32243,9.87727,9,4.8,6
38.281,2735721.47,-0.01645,-0.31525,9.88684,9,4.8,6
38.3,2735721.489,-0.02124,-0.32243,9.87967,9,4.8,6
38.318,2735721.508,-0.01645,-0.332,9.88206,9,4.8,6
38.338,2735721.527,-0.00927,-0.32961,9.88684,9,4.8,6
38.357,2735721.546,-0.01406,-0.31765,9.88684,9,4.8,6
38.376,2735721.565,-0.01645,-0.32722,9.89163,9,4.8,6
38.394,2735721.584,-0.02124,-0.32483,9.87488,9,4.8,6
38.415,2735721.603,-0.02124,-0.332,9.87488,9,4.8,6
38.434,2735721.622,-0.01884,-0.31525,9.88445,9,4.8,6
38.454,2735721.641,-0.02363,-0.332,9.88206,9,4.8,6
38.471,2735721.66,-0.01406,-0.32483,9.88445,9,4.8,6
38.491,2735721.679,-0.00688,-0.31765,9.87967,9,4.8,6
38.512,2735721.698,-0.01645,-0.32961,9.88206,9,4.8,6
38.529,2735721.717,-0.02124,-0.32243,9.87249,9,4.8,6
38.548,2735721.736,-0.02363,-0.32961,9.88206,9,4.8,6
38.567,2735721.755,-0.02124,-0.31525,9.88445,9,4.8,6
38.586,2735721.774,-0.01645,-0.33679,9.87249,9,4.8,6
38.605,2735721.793,-0.01406,-0.32722,9.88924,9,4.8,6
38.623,2735721.812,-0.02841,-0.31765,9.87488,9,4.8,6
38.643,2735721.831,-0.01884,-0.332,9.89642,9,4.8,6
38.662,2735721.85,-0.01406,-0.32483,9.87249,9,4.8,6
38.685,2735721.869,-0.02363,-0.33679,9.88206,9,4.8,6
38.703,2735721.888,-0.01167,-0.34158,9.87249,9,4.8,6
38.719,2735721.907,-0.01884,-0.33679,9.88445,9,4.8,6
38.738,2735721.926,-0.01645,-0.32483,9.87967,9,4.8,6
38.759,2735721.945,-0.02124,-0.32722,9.89163,9,4.8,6
38.776,2735721.964,-0.01167,-0.32483,9.8677,9,4.8,6
38.797,2735721.983,-0.01884,-0.32483,9.88924,9,4.8,6
38.815,2735722.002,-0.01884,-0.32004,9.87009,9,4.8,6
38.834,2735722.021,-0.01884,-0.32243,9.87967,9,4.8,6
38.853,2735722.04,-0.01884,-0.31525,9.87488,9,4.8,6
38.873,2735722.059,-0.01406,-0.31765,9.88445,9,4.8,6
38.89,2735722.078,-0.00449,-0.32961,9.86292,9,4.8,6
38.91,2735722.097,-0.01884,-0.32483,9.88684,9,4.8,6
38.93,2735722.116,-0.01645,-0.3344,9.87727,9,4.8,6
38.947,2735722.135,-0.00927,-0.3344,9.89163,9,4.8,6
38.966,2735722.154,-0.00927,-0.32961,9.87727,9,4.8,6
38.986,2735722.173,-0.02124,-0.31525,9.89163,9,4.8,6
39.004,2735722.192,-0.02363,-0.332,9.88206,9,4.8,6
39.023,2735722.211,-0.02363,-0.31765,9.88206,9,4.8,6
39.042,2735722.23,-0.02124,-0.32483,9.87009,9,4.8,6
39.061,2735722.249,-0.01884,-0.32483,9.88445,9,4.8,6
39.08,2735722.269,-0.02363,-0.33918,9.87967,9,4.8,6
39.099,2735722.288,-0.02124,-0.31525,9.88924,9,4.8,6
39.118,2735722.307,-0.02363,-0.32722,9.87967,9,4.8,6
39.137,2735722.326,-0.01884,-0.32483,9.88684,9,4.8,6
39.155,2735722.345,-0.01406,-0.332,9.87488,9,4.8,6
39.176,2735722.364,-0.01406,-0.3344,9.87727,9,4.8,6
39.195,2735722.383,-0.02124,-0.32243,9.87967,9,4.8,6
39.213,2735722.402,-0.01167,-0.31765,9.88924,9,4.8,6
39.234,2735722.421,-0.03081,-0.32722,9.87727,9,4.8,6
39.252,2735722.44,-0.02363,-0.32004,9.87967,9,4.8,6
39.271,2735722.459,-0.02124,-0.31286,9.87727,9,4.8,6
39.29,2735722.478,-0.03081,-0.31525,9.88206,9,4.8,6
39.309,2735722.497,-0.01884,-0.32483,9.88684,9,4.8,6
39.328,2735722.516,-0.01645,-0.32483,9.88684,9,4.8,6
39.35,2735722.535,-0.02841,-0.32004,9.88684,9,4.8,6
39.367,2735722.554,-0.02602,-0.31765,9.87967,9,4.8,6
39.385,2735722.573,-0.02602,-0.32483,9.87488,9,4.8,6
39.404,2735722.592,-0.01884,-0.32243,9.88206,9,4.8,6
39.422,2735722.611,-0.01167,-0.31765,9.88206,9,4.8,6
39.442,2735722.63,-0.01406,-0.31047,9.87967,9,4.8,6
39.462,2735722.649,-0.01645,-0.32961,9.88206,9,4.8,6
39.48,2735722.668,-0.02841,-0.32961,9.87488,9,4.8,6
39.499,2735722.687,-0.01884,-0.32722,9.87967,9,4.8,6
39.517,2735722.706,-0.02124,-0.33679,9.87727,9,4.8,6
39.537,2735722.725,-0.01645,-0.32722,9.88924,9,4.8,6
39.556,2735722.744,-0.01406,-0.31286,9.8677,9,4.8,6
39.575,2735722.763,-0.01406,-0.31286,9.88684,9,4.8,6
39.594,2735722.782,-0.02124,-0.31765,9.87488,9,4.8,6
39.613,2735722.801,-0.00449,-0.32004,9.89163,9,4.8,6
39.633,2735722.82,-0.00927,-0.32243,9.88445,9,4.8,6
39.661,2735722.839,-0.02124,-0.31765,9.88924,9,4.8,6
39.67,2735722.858,-0.01645,-0.31765,9.87009,9,4.8,6
39.69,2735722.877,-0.02124,-0.32004,9.87488,9,4.8,6
39.709,2735722.896,-0.02602,-0.32483,9.87727,9,4.8,6
39.728,2735722.915,-0.02602,-0.32243,9.87488,9,4.8,6
39.748,2735722.934,-0.02124,-0.32961,9.88684,9,4.8,6
39.766,2735722.953,-0.02124,-0.332,9.88206,9,4.8,6
39.785,2735722.972,-0.01884,-0.32961,9.87488,9,4.8,6
39.804,2735722.991,-0.01884,-0.32483,9.88684,9,4.8,6
39.822,2735723.01,-0.02841,-0.30568,9.87727,9,4.8,6
39.841,2735723.029,-0.02124,-0.32722,9.88206,9,4.8,6
39.864,2735723.048,-0.01167,-0.332,9.87967,9,4.8,6
39.88,2735723.067,-0.01645,-0.31765,9.88206,9,4.8,6
39.899,2735723.086,-0.01406,-0.32722,9.88206,9,4.8,6
39.917,2735723.105,-0.01884,-0.3344,9.87249,9,4.8,6
39.94,2735723.124,-0.01406,-0.32961,9.89163,9,4.8,6
39.961,2735723.143,-0.02124,-0.33679,9.87727,9,4.8,6
39.975,2735723.163,-0.02602,-0.32722,9.88445,9,4.8,6
39.994,2735723.182,-0.00449,-0.32483,9.87488,9,4.8,6
40.014,2735723.201,-0.01884,-0.32961,9.88684,9,4.8,6
40.036,2735723.22,-0.01884,-0.32483,9.88206,9,4.8,6
40.055,2735723.239,-0.01645,-0.32722,9.87967,9,4.8,6
40.074,2735723.258,-0.02124,-0.32483,9.88924,9,4.8,6
40.09,2735723.277,-0.02124,-0.32961,9.87727,9,4.8,6
40.107,2735723.296,-0.01645,-0.32004,9.87967,9,4.8,6
40.127,2735723.315,-0.00927,-0.32483,9.87727,9,4.8,6
40.146,2735723.334,-0.01645,-0.33918,9.87967,9,4.8,6
40.165,2735723.353,-0.02124,-0.32483,9.87967,9,4.8,6
40.185,2735723.372,-0.00927,-0.30568,9.88924,9,4.8,6
40.203,2735723.391,-0.02363,-0.31525,9.87009,9,4.8,6
40.222,2735723.41,-0.02124,-0.32483,9.88684,9,4.8,6
40.24,2735723.429,-0.01645,-0.31765,9.88206,9,4.8,6
40.26,2735723.448,-0.00688,-0.332,9.89402,9,4.8,6
40.283,2735723.467,-0.02363,-0.332,9.88206,9,4.8,6
40.298,2735723.486,-0.01406,-0.3344,9.87488,9,4.8,6
40.316,2735723.505,-0.02602,-0.3344,9.88206,9,4.8,6
40.34,2735723.524,-0.02124,-0.32243,9.88445,9,4.8,6
40.357,2735723.543,-0.02602,-0.32243,9.87967,9,4.8,6
40.376,2735723.562,-0.01884,-0.332,9.88206,9,4.8,6
40.392,2735723.581,-0.01884,-0.32961,9.8677,9,4.8,6
40.413,2735723.6,-0.01406,-0.32243,9.88924,9,4.8,6
40.432,2735723.619,-0.01884,-0.31765,9.87967,9,4.8,6
40.45,2735723.638,-0.01645,-0.32722,9.88684,9,4.8,6
40.471,2735723.657,-0.01884,-0.31525,9.87488,9,4.8,6
40.491,2735723.676,-0.01645,-0.32961,9.88684,9,4.8,6
40.506,2735723.695,-0.02363,-0.31286,9.87249,9,4.8,6
40.527,2735723.714,-0.02124,-0.332,9.88445,9,4.8,6
40.546,2735723.733,-0.01167,-0.31765,9.87009,9,4.8,6
40.568,2735723.752,-0.01167,-0.32004,9.88445,9,4.8,6
40.588,2735723.771,-0.02124,-0.32483,9.87727,9,4.8,6
40.603,2735723.79,-0.02363,-0.32961,9.88684,9,4.8,6
40.621,2735723.809,-0.01406,-0.33679,9.87249,9,4.8,6
40.641,2735723.828,-0.03081,-0.32722,9.88445,9,4.8,6
40.66,2735723.847,-0.02841,-0.31525,9.87727,9,4.8,6
40.679,2735723.866,-0.01406,-0.32722,9.87967,9,4.8,6
40.699,2735723.885,-0.02124,-0.31525,9.87249,9,4.8,6
40.716,2735723.904,-0.02124,-0.32004,9.87488,9,4.8,6
40.741,2735723.923,-0.01167,-0.32483,9.88206,9,4.8,6
40.756,2735723.942,-0.00688,-0.32961,9.87488,9,4.8,6
40.776,2735723.961,-0.01645,-0.32722,9.87967,9,4.8,6
40.791,2735723.98,-0.02124,-0.32004,9.88684,9,4.8,6
40.811,2735723.999,-0.01406,-0.332,9.88445,9,4.8,6
40.835,2735724.018,-0.02124,-0.332,9.87727,9,4.8,6
40.85,2735724.037,-0.01645,-0.32961,9.88206,9,4.8,6
40.873,2735724.057,-0.02363,-0.32483,9.87967,9,4.8,6
40.89,2735724.076,-0.02124,-0.32722,9.88924,9,4.8,6
40.909,2735724.095,-0.01884,-0.31765,9.88684,9,4.8,6
40.926,2735724.114,-0.01884,-0.31525,9.88684,9,4.8,6
40.945,2735724.133,-0.02841,-0.32722,9.87727,9,4.8,6
40.969,2735724.152,-0.02602,-0.332,9.89402,9,4.8,6
40.984,2735724.171,-0.02363,-0.31765,9.87488,9,4.8,6
41.002,2735724.19,-0.02124,-0.32243,9.88445,9,4.8,6
41.021,2735724.209,-0.00927,-0.33679,9.87009,9,4.8,6
41.04,2735724.228,-0.01406,-0.32483,9.89402,9,4.8,6
41.06,2735724.247,-0.01645,-0.32004,9.87009,9,4.8,6
41.078,2735724.266,-0.02602,-0.33918,9.88206,9,4.8,6
41.097,2735724.285,-0.02363,-0.31525,9.88445,9,4.8,6
41.116,2735724.304,-0.02124,-0.32722,9.88924,9,4.8,6
41.137,2735724.323,-0.01406,-0.3344,9.88445,9,4.8,6
41.157,2735724.342,-0.02363,-0.32722,9.87967,9,4.8,6
41.174,2735724.361,-0.01884,-0.32722,9.88684,9,4.8,6
41.191,2735724.38,-0.01406,-0.32004,9.87009,9,4.8,6
41.213,2735724.399,-0.01406,-0.32243,9.88445,9,4.8,6
41.234,2735724.418,-0.00688,-0.31286,9.88206,9,4.8,6
41.254,2735724.437,-0.01884,-0.332,9.88445,9,4.8,6
41.273,2735724.456,-0.02602,-0.32243,9.87967,9,4.8,6
41.288,2735724.475,-0.01884,-0.32722,9.87967,9,4.8,6
41.31,2735724.494,-0.02124,-0.32483,9.88445,9,4.8,6
41.326,2735724.513,-0.01645,-0.32961,9.87009,9,4.8,6
41.345,2735724.532,-0.01406,-0.32961,9.88445,9,4.8,6
41.364,2735724.551,-0.02841,-0.33918,9.87727,9,4.8,6
41.386,2735724.57,-0.02602,-0.33679,9.88445,9,4.8,6
41.402,2735724.589,-0.02363,-0.332,9.87488,9,4.8,6
41.419,2735724.608,-0.01884,-0.32243,9.88445,9,4.8,6
41.439,2735724.627,-0.01884,-0.33679,9.87488,9,4.8,6
41.458,2735724.646,-0.02124,-0.32483,9.88445,9,4.8,6
41.477,2735724.665,-0.01167,-0.32483,9.87009,9,4.8,6
41.496,2735724.684,-0.01884,-0.32961,9.88445,9,4.8,6
41.516,2735724.703,-0.01406,-0.32483,9.88445,9,4.8,6
41.536,2735724.722,-0.01645,-0.32004,9.88445,9,4.8,6
41.556,2735724.741,-0.01645,-0.32483,9.87967,9,4.8,6
41.578,2735724.76,-0.01406,-0.32483,9.87488,9,4.8,6
41.592,2735724.779,-0.01884,-0.32722,9.87488,9,4.8,6
41.611,2735724.798,-0.01645,-0.32722,9.87967,9,4.8,6
41.634,2735724.817,-0.00927,-0.31525,9.87967,9,4.8,6
41.658,2735724.836,-0.01884,-0.32961,9.87967,9,4.8,6
41.668,2735724.855,-0.01406,-0.3344,9.88206,9,4.8,6
41.686,2735724.874,-0.01167,-0.31286,9.87488,9,4.8,6
41.706,2735724.893,-0.01645,-0.32004,9.88684,9,4.8,6
41.725,2735724.912,-0.01645,-0.32722,9.87727,9,4.8,6
41.744,2735724.931,-0.01406,-0.332,9.87488,9,4.8,6
41.767,2735724.951,-0.00927,-0.34397,9.88206,9,4.8,6
41.785,2735724.97,-0.01884,-0.32004,9.89402,9,4.8,6
41.804,2735724.989,-0.02841,-0.32722,9.87249,9,4.8,6
41.821,2735725.008,-0.01884,-0.32004,9.87967,9,4.8,6
41.839,2735725.027,-0.01406,-0.3344,9.87727,9,4.8,6
41.857,2735725.046,-0.01645,-0.32722,9.87727,9,4.8,6
41.878,2735725.065,-0.00688,-0.3344,9.87967,9,4.8,6
41.895,2735725.084,-0.01167,-0.32483,9.87967,9,4.8,6
41.917,2735725.103,-0.02602,-0.32243,9.87249,9,4.8,6
41.935,2735725.122,-0.00688,-0.33679,9.89163,9,4.8,6
41.956,2735725.141,-0.01884,-0.33679,9.8677,9,4.8,6
41.975,2735725.16,-0.01884,-0.32243,9.88445,9,4.8,6
41.994,2735725.179,-0.01884,-0.32483,9.87727,9,4.8,6
42.011,2735725.198,-0.01884,-0.32483,9.88684,9,4.8,6
42.03,2735725.217,-0.01884,-0.32483,9.87249,9,4.8,6
42.049,2735725.236,-0.02124,-0.30808,9.87488,9,4.8,6
42.068,2735725.255,-0.01884,-0.32961,9.87488,9,4.8,6
42.088,2735725.274,-0.01167,-0.32004,9.87967,9,4.8,6
42.105,2735725.293,-0.02841,-0.33918,9.88206,9,4.8,6
42.123,2735725.312,-0.02602,-0.332,9.87009,9,4.8,6
42.143,2735725.331,0.0003,-0.32483,9.89163,9,4.8,6
42.163,2735725.35,-0.00927,-0.32004,9.88445,9,4.8,6
42.182,2735725.369,-0.01884,-0.32961,9.88206,9,4.8,6
42.201,2735725.388,-0.01406,-0.32243,9.88445,9,4.8,6
42.219,2735725.407,-0.02363,-0.32243,9.88206,9,4.8,6
42.238,2735725.426,-0.00688,-0.33679,9.87488,9,4.8,6
42.258,2735725.445,-0.01645,-0.33679,9.87727,9,4.8,6
42.276,2735725.464,-0.02602,-0.32722,9.88445,9,4.8,6
42.296,2735725.483,-0.02124,-0.32483,9.87967,9,4.8,6
42.319,2735725.502,-0.02124,-0.32961,9.88206,9,4.8,6
42.335,2735725.521,-0.00927,-0.33679,9.87967,9,4.8,6
42.353,2735725.54,-0.01406,-0.32722,9.88206,9,4.8,6
42.372,2735725.559,-0.02363,-0.332,9.87727,9,4.8,6
42.39,2735725.578,-0.02602,-0.32243,9.87967,9,4.8,6
42.41,2735725.597,-0.01406,-0.32243,9.88206,9,4.8,6
42.43,2735725.616,-0.02363,-0.32722,9.87727,9,4.8,6
42.447,2735725.635,-0.01406,-0.32483,9.88206,9,4.8,6
42.466,2735725.654,-0.00927,-0.32483,9.88924,9,4.8,6
42.487,2735725.673,-0.01645,-0.32483,9.87249,9,4.8,6
42.505,2735725.692,-0.01167,-0.31286,9.87727,9,4.8,6
42.522,2735725.711,-0.00688,-0.32243,9.88684,9,4.8,6
42.541,2735725.73,-0.01645,-0.31765,9.88445,9,4.8,6
42.561,2735725.749,-0.01406,-0.332,9.88684,9,4.8,6
42.582,2735725.768,-0.01406,-0.32483,9.87488,9,4.8,6
42.599,2735725.787,-0.01645,-0.31765,9.88684,9,4.8,6
42.618,2735725.806,-0.01884,-0.3344,9.87249,9,4.8,6
42.636,2735725.825,-0.02124,-0.3344,9.88445,9,4.8,6
42.659,2735725.845,-0.01406,-0.332,9.87967,9,4.8,6
42.675,2735725.864,-0.01406,-0.32004,9.88445,9,4.8,6
42.698,2735725.883,-0.01167,-0.31286,9.88206,9,4.8,6
42.718,2735725.902,-0.01406,-0.31765,9.88206,9,4.8,6
42.733,2735725.921,-0.00927,-0.31765,9.88924,9,4.8,6
42.753,2735725.94,-0.01406,-0.32483,9.88206,9,4.8,6
42.773,2735725.959,-0.02124,-0.32483,9.88206,9,4.8,6
42.793,2735725.978,-0.01645,-0.332,9.87488,9,4.8,6
42.809,2735725.997,-0.02363,-0.332,9.88684,9,4.8,6
42.829,2735726.016,-0.01645,-0.33918,9.88445,9,4.8,6
42.847,2735726.035,-0.01884,-0.32722,9.87727,9,4.8,6
42.87,2735726.054,-0.01884,-0.32722,9.88206,9,4.8,6
42.886,2735726.073,-0.01884,-0.32243,9.88924,9,4.8,6
42.906,2735726.092,-0.01645,-0.33679,9.88445,9,4.8,6
42.923,2735726.111,-0.02124,-0.31765,9.87727,9,4.8,6
42.942,2735726.13,-0.02602,-0.332,9.87488,9,4.8,6
42.962,2735726.149,-0.02124,-0.32243,9.88684,9,4.8,6
42.981,2735726.168,-0.01645,-0.332,9.87967,9,4.8,6
42.998,2735726.187,-0.01884,-0.32722,9.88445,9,4.8,6
43.019,2735726.206,-0.01884,-0.32961,9.87967,9,4.8,6
43.035,2735726.225,-0.01884,-0.32722,9.88924,9,4.8,6
43.057,2735726.244,-0.01884,-0.32961,9.88206,9,4.8,6
43.075,2735726.263,-0.01884,-0.31047,9.87967,9,4.8,6
43.093,2735726.282,-0.01406,-0.32004,9.87967,9,4.8,6
43.115,2735726.301,-0.02124,-0.32722,9.87727,9,4.8,6
43.133,2735726.32,-0.02363,-0.332,9.87727,9,4.8,6
43.152,2735726.339,-0.01645,-0.32961,9.88684,9,4.8,6
43.171,2735726.358,-0.00927,-0.32483,9.88206,9,4.8,6
43.193,2735726.377,-0.01645,-0.32483,9.87488,9,4.8,6
43.209,2735726.396,-0.02124,-0.32722,9.87249,9,4.8,6
43.23,2735726.415,-0.01884,-0.32483,9.88206,9,4.8,6
43.251,2735726.434,-0.01884,-0.32004,9.87249,9,4.8,6
43.269,2735726.453,-0.01645,-0.32722,9.88684,9,4.8,6
43.289,2735726.472,-0.02363,-0.32961,9.87009,9,4.8,6
43.304,2735726.491,-0.01884,-0.32483,9.88924,9,4.8,6
43.322,2735726.51,-0.01406,-0.32483,9.87009,9,4.8,6
43.341,2735726.529,-0.01167,-0.32004,9.88684,9,4.8,6
43.361,2735726.548,-0.01645,-0.32483,9.87967,9,4.8,6
43.384,2735726.567,-0.02602,-0.32004,9.88684,9,4.8,6
43.399,2735726.586,-0.02124,-0.33679,9.87249,9,4.8,6
43.416,2735726.605,-0.00927,-0.32722,9.87967,9,4.8,6
43.437,2735726.624,-0.01406,-0.32961,9.87727,9,4.8,6
43.46,2735726.643,-0.01167,-0.31525,9.88924,9,4.8,6
43.477,2735726.662,-0.02602,-0.32961,9.87967,9,4.8,6
43.494,2735726.681,-0.03081,-0.34158,9.88445,9,4.8,6
43.514,2735726.7,-0.02363,-0.32961,9.87967,9,4.8,6
43.537,2735726.719,-0.01406,-0.332,9.88445,9,4.8,6
43.555,2735726.739,-0.01645,-0.32483,9.87727,9,4.8,6
