AppTimestamp(s),Gyr_X,Gyr_Y,Gyr_Z,Latitude,Longitude,Label
0,1.0,0.0,0.2694445016863464,0,0.6,0
1,0.2470095545379113,0.31099665534398474,0.27148221994095717,0,0.6,0
2,0.2263061962271256,0.28013041994948973,0.2685372512115417,0,0.6,0
3,0.24437409064229476,0.2810953548687181,0.2699857530746962,0,0.6,0
4,0.2477898901642384,0.2798682520383841,0.26869577760834173,0,0.6,0
5,0.24890610725300688,0.28059636903167307,0.27126822868368805,0,0.6,0
6,0.24927353017164575,0.27959888800245714,0.2714857245472013,0,0.6,0
7,0.2503657757537041,0.2776564249455629,0.26869577760834173,0,0.6,0
8,0.25145451672951824,0.2776839010585172,0.27016574965139684,0,0.6,0
9,0.25148844131796183,0.27998089008307175,0.2699857530746962,0,0.6,0
10,0.25145108221539897,0.2787589039778542,0.27126822868368805,0,0.6,0
11,0.2503623412395848,0.27692830795227397,0.2731056937375069,0,0.6,0
12,0.2485420487563624,0.27692487343815464,0.27053324266216056,0,0.6,0
13,0.24926301635291326,0.27998789929556006,0.27036074594282244,0,0.6,0
14,0.24851113812928882,0.27731984256187275,0.2690632706191055,0,0.6,0
15,0.24817112123147933,0.27950075902762034,0.269798256640633,0,0.6,0
16,0.25000949748292167,0.27959888800245714,0.2714857245472013,0,0.6,0
17,0.24963765876041513,0.2802288760209093,0.27090073567292433,0,0.6,0
18,0.24853517972812383,0.279126396988618,0.2690632706191055,0,0.6,0
19,0.2477735586991406,0.2784844232168107,0.2681107887340647,0,0.6,0
20,0.2481642522032408,0.2806032380599116,0.27053324266216056,0,0.6,0
21,0.24890610725300688,0.2791367005309759,0.26869577760834173,0,0.6,0
22,0.24702707756913217,0.2784844232168107,0.27073573881094876,0,0.6,0
23,0.2481676867173601,0.2776632939738015,0.2716357216944518,0,0.6,0
24,0.246697714674305,0.27839484548120974,0.27126822868368805,0,0.6,0
25,0.24890610725300688,0.2813347895673199,0.27126822868368805,0,0.6,0
26,0.2473985658310143,0.28109885947496227,0.2699857530746962,0,0.6,0
27,0.24743956972407108,0.27949388999938174,0.27200321470521566,0,0.6,0
28,0.24707207671330733,0.278398279995329,0.27053324266216056,0,0.6,0
29,0.2459020989647533,0.28185234981745905,0.26886077447031725,0,0.6,0
30,0.24743270069583254,0.28096386204243684,0.2675932985760504,0,0.6,0
31,0.2463336561776605,0.2802288760209093,0.26869577760834173,0,0.6,0
32,0.24780362822071558,0.27876233849197346,0.26722580556528663,0,0.6,0
33,0.24739155661852597,0.2803488737387097,0.26886077447031725,0,0.6,0
34,0.24743956972407108,0.2787589039778542,0.27053324266216056,0,0.6,0
35,0.2452346116594885,0.28059636903167307,0.27200321470521566,0,0.6,0
36,0.24665208470100589,0.28072737121308017,0.2681107887340647,0,0.6,0
37,0.24707207671330733,0.28280132709625566,0.27090073567292433,0,0.6,0
38,0.24927703477788996,0.27876920752021206,0.2683282845975779,0,0.6,0
39,0.24927353017164575,0.2811023640812065,0.27073573881094876,0,0.6,0
40,0.24817112123147933,0.27949388999938174,0.2683282845975779,0,0.6,0
41,0.24670458370254358,0.28169884806396434,0.2690632706191055,0,0.6,0
42,0.24817455574559863,0.2802288760209093,0.27016574965139684,0,0.6,0
43,0.2481450469610227,0.28110586868745063,0.26886077447031725,0,0.6,0
44,0.24817455574559863,0.2780307869845653,0.269798256640633,0,0.6,0
45,0.246697714674305,0.2791298315027373,0.27200321470521566,0,0.6,0
46,0.24739506122477012,0.2807308758193243,0.27036074594282244,0,0.6,0
47,0.24780706273483488,0.2798613830101455,0.27090073567292433,0,0.6,0
48,0.24780362822071558,0.2780239179563267,0.2723707077159794,0,0.6,0
49,0.24664858009476173,0.28035237834495386,0.27186071741532764,0,0.6,0
50,0.2463336561776605,0.27949732451350107,0.27016574965139684,0,0.6,0
51,0.24596959768101603,0.28133822408143916,0.26943076362986923,0,0.6,0
52,0.24853861424224313,0.28022544150678996,0.26943076362986923,0,0.6,0
53,0.25572901487340866,0.2768442674945388,0.2692953456445945,0,0.6,0
54,0.27327055041523274,0.2715292517567539,0.27284467066444107,0,0.6,0
55,0.27253212987958586,0.27482981982538923,0.27175249517450767,0,0.6,0
56,0.27286303480116053,0.2738548383682609,0.2704448564926826,0,0.6,0
57,0.27362773988363864,0.273727340793098,0.27175249517450767,0,0.6,0
58,0.2732568123587556,0.27263173078904523,0.2732087291610856,0,0.6,0
59,0.27212005827739627,0.274615337923246,0.27007336823080047,0,0.6,0
60,0.2728927538621111,0.2718898757392791,0.2699322026912852,0,0.6,0
61,0.2728927538621111,0.27262829627492596,0.2706603196845742,0,0.6,0
62,0.27180057837217764,0.275197312836153,0.2713884366778631,0,0.6,0
63,0.27137708175363207,0.27385834297450506,0.27230229780209314,0,0.6,0
64,0.2728996228903497,0.2744657613287448,0.26956814419464076,0,0.6,0
65,0.2725286953654666,0.2729923547715704,0.2732087291610856,0,0.6,0
66,0.27212005827739627,0.2734798455001346,0.2704448564926826,0,0.6,0
67,0.2714365198755332,0.27152238272851537,0.27284467066444107,0,0.6,0
68,0.27180057837217764,0.2744657613287448,0.27248061216779657,0,0.6,0
69,0.2691516567885835,0.2738548383682609,0.27155932127832894,0,0.6,0
70,0.27326368138699414,0.2733598477823342,0.27539308014095243,0,0.6,0
71,0.27216463686882214,0.27482981982538923,0.2713884366778631,0,0.6,0
72,0.2725286953654666,0.2711548897177516,0.2713884366778631,0,0.6,0
73,0.2717520746217583,0.2746083287107577,0.27304527432585746,0,0.6,0
74,0.2725286953654666,0.27336328229645346,0.27430090465101903,0,0.6,0
75,0.2732568123587556,0.2744691958428641,0.2713884366778631,0,0.6,0
76,0.27323452306304263,0.2749798169726398,0.27415973911150376,0,0.6,0
77,0.2750908428984551,0.27336328229645346,0.2746649631476635,0,0.6,0
78,0.27180401288629696,0.2729923547715704,0.2721165536711521,0,0.6,0
79,0.2725286953654666,0.27556480584691684,0.27284467066444107,0,0.6,0
80,0.2725020603580109,0.27273336437012624,0.27378825084962166,0,0.6,0
81,0.27326024687287487,0.273727340793098,0.2721165536711521,0,0.6,0
82,0.2725286953654666,0.27482981982538923,0.27175249517450767,0,0.6,0
83,0.2724915465392784,0.276479788445145,0.27193080954021104,0,0.6,0
84,0.27253212987958586,0.27409139928974247,0.2706603196845742,0,0.6,0
85,0.2707118373963635,0.27556480584691684,0.27102437818121866,0,0.6,0
86,0.2710090980979941,0.2734798455001346,0.274902715635268,0,0.6,0
87,0.2714365198755332,0.2770347778899719,0.2702962611879297,0,0.6,0
88,0.27180401288629696,0.27483668885362783,0.2713884366778631,0,0.6,0
89,0.26998028588895523,0.27482981982538923,0.2706603196845742,0,0.6,0
90,0.27174857001551417,0.2734798455001346,0.2704448564926826,0,0.6,0
91,0.2739883638661638,0.275197312836153,0.27248061216779657,0,0.6,0
92,0.27143995438965246,0.2752007473502723,0.2699322026912852,0,0.6,0
93,0.27137708175363207,0.2731083572382525,0.27230229780209314,0,0.6,0
94,0.2728961883762304,0.27556480584691684,0.27248061216779657,0,0.6,0
95,0.2725286953654666,0.2759357333717999,0.27175249517450767,0,0.6,0
96,0.27286303480116053,0.27310485263200834,0.27378825084962166,0,0.6,0
97,0.2728961883762304,0.27299578928568974,0.2699322026912852,0,0.6,0
98,0.27253212987958586,0.27409826831798106,0.2721165536711521,0,0.6,0
99,0.27180057837217764,0.2726248617608067,0.27284467066444107,0,0.6,0
100,0.27249855575176674,0.27460482410451353,0.2726737860639753,0,0.6,0
101,0.2736243053695193,0.27483325433950856,0.27175249517450767,0,0.6,0
102,0.2728961883762304,0.273727340793098,0.2692040856979963,0,0.6,0
103,0.27026261696798565,0.27422983123638717,0.27230229780209314,0,0.6,0
104,0.27143995438965246,0.27629635735432506,0.26884002720135175,0,0.6,0
105,0.27216463686882214,0.2722642377782815,0.2699322026912852,0,0.6,0
106,0.27175557922800253,0.27572980270889236,0.27378825084962166,0,0.6,0
107,0.2739986674085217,0.2744657613287448,0.2721165536711521,0,0.6,0
108,0.27362087085540004,0.2744623268146255,0.2706603196845742,0,0.6,0
109,0.27326024687287487,0.27409483380386174,0.27102437818121866,0,0.6,0
110,0.27360951593116895,0.2753548098407661,0.2726737860639753,0,0.6,0
111,0.27034434438559973,0.27409483380386174,0.27175249517450767,0,0.6,0
112,0.2725286953654666,0.27409483380386174,0.27248061216779657,0,0.6,0
113,0.27324153227553094,0.27367960805605235,0.27007336823080047,0,0.6,0
114,0.2725286953654666,0.27259738564785235,0.27357278765773,0,0.6,0
115,0.27216463686882214,0.2696608760758615,0.27248061216779657,0,0.6,0
116,0.27362773988363864,0.27259738564785235,0.2732087291610856,0,0.6,0
117,0.2751024781911858,0.27350087313759963,0.27230229780209314,0,0.6,0
118,0.27143995438965246,0.2714949066155611,0.27430090465101903,0,0.6,0
119,0.2736243053695193,0.2714949066155611,0.27248061216779657,0,0.6,0
120,0.2739774995868069,0.2712474113225977,0.27007336823080047,0,0.6,0
121,0.2743592913910469,0.2729648786586162,0.2713884366778631,0,0.6,0
122,0.27326024687287487,0.2714949066155611,0.2732087291610856,0,0.6,0
123,0.2739880134055394,0.2705009301925893,0.27304527432585746,0,0.6,0
124,0.2728961883762304,0.2704027311256276,0.27248061216779657,0,0.6,0
125,0.2728927538621111,0.26892932456845325,0.2746649631476635,0,0.6,0
126,0.27399523289440236,0.27039242758326976,0.27430090465101903,0,0.6,0
127,0.2743595016674215,0.2701224327182188,0.27378825084962166,0,0.6,0
128,0.2743558568769276,0.2722298926370886,0.2732087291610856,0,0.6,0
129,0.2754549013950996,0.2733323716693799,0.27248061216779657,0,0.6,0
130,0.2743524924549332,0.27049742558634515,0.27304527432585746,0,0.6,0
131,0.2732568123587556,0.2696608760758615,0.27284467066444107,0,0.6,0
132,0.27472334988769137,0.26929681757921703,0.2713884366778631,0,0.6,0
133,0.27472748532305946,0.26825798219631986,0.2711878330164468,0,0.6,0
134,0.2750874083843358,0.26782341102204266,0.27284467066444107,0,0.6,0
135,0.2750908428984551,0.27039586209738903,0.2702962611879297,0,0.6,0
136,0.27398450879929526,0.271254420535086,0.2711878330164468,0,0.6,0
137,0.2743524223628083,0.2700283690866253,0.27284467066444107,0,0.6,0
138,0.2750908428984551,0.2696608760758615,0.26884002720135175,0,0.6,0
139,0.27399523289440236,0.26928994855097843,0.2721165536711521,0,0.6,0
140,0.2743595016674215,0.27012593732446305,0.27378825084962166,0,0.6,0
141,0.2739883638661638,0.2711308481189166,0.27175249517450767,0,0.6,0
142,0.2736243053695193,0.2711308481189166,0.27175249517450767,0,0.6,0
143,0.2751059827974299,0.2693759515882104,0.2711878330164468,0,0.6,0
144,0.2739883638661638,0.26928994855097843,0.27102437818121866,0,0.6,0
145,0.27472334988769137,0.26929338306509776,0.2732087291610856,0,0.6,0
146,0.27253212987958586,0.27149834112968035,0.27102437818121866,0,0.6,0
147,0.27472748532305946,0.2727473827951029,0.27155932127832894,0,0.6,0
148,0.2732568123587556,0.2700283690866253,0.2706603196845742,0,0.6,0
149,0.2728927538621111,0.26856183155768953,0.2706603196845742,0,0.6,0
150,0.2728770532261372,0.27012593732446305,0.27193080954021104,0,0.6,0
151,0.27362087085540004,0.2707633551081528,0.2713884366778631,0,0.6,0
152,0.2736243053695193,0.27259738564785235,0.2699322026912852,0,0.6,0
153,0.2732380276692868,0.27087592306071556,0.2708163447545647,0,0.6,0
154,0.2728927538621111,0.27039586209738903,0.27175249517450767,0,0.6,0
155,0.2728961883762304,0.27149834112968035,0.27175249517450767,0,0.6,0
156,0.2725286953654666,0.2711308481189166,0.2732087291610856,0,0.6,0
157,0.2747309899293036,0.2712509159288419,0.27193080954021104,0,0.6,0
158,0.27253212987958586,0.27075992059403353,0.27102437818121866,0,0.6,0
159,0.2758524639274384,0.2734973685313554,0.27155932127832894,0,0.6,0
160,0.2739883638661638,0.27039929661150836,0.2699322026912852,0,0.6,0
161,0.27362773988363864,0.2700318036007446,0.2706603196845742,0,0.6,0
162,0.2725286953654666,0.27002493457250604,0.27175249517450767,0,0.6,0
163,0.27398450879929526,0.2701224327182188,0.26895890344515405,0,0.6,0
164,0.27216463686882214,0.27333580618349923,0.27175249517450767,0,0.6,0
165,0.2725355643937052,0.2700318036007446,0.27393684615437447,0,0.6,0
166,0.2728927538621111,0.2714949066155611,0.2713884366778631,0,0.6,0
167,0.27361302053741315,0.27199739705885034,0.27230229780209314,0,0.6,0
168,0.27216463686882214,0.27149834112968035,0.2713884366778631,0,0.6,0
169,0.27473021891592997,0.27075992059403353,0.27175249517450767,0,0.6,0
170,0.27361302053741315,0.2712474113225977,0.2708163447545647,0,0.6,0
171,0.27326024687287487,0.27075992059403353,0.2732087291610856,0,0.6,0
172,0.27296144414449686,0.2707702241363914,0.2699322026912852,0,0.6,0
173,0.2713665679348995,0.271254420535086,0.2667299738738613,0,0.6,0
174,0.2724840466819159,0.27186583414044413,0.2713884366778631,0,0.6,0
175,0.2710140746388608,0.2718692686545634,0.27357278765773,0,0.6,0
176,0.270646581628097,0.27075992059403353,0.2684759687047073,0,0.6,0
177,0.2728665394074047,0.2712474113225977,0.27007336823080047,0,0.6,0
178,0.27138156764962457,0.27186239962632486,0.27175249517450767,0,0.6,0
179,0.27321903270344344,0.2700283690866253,0.27248061216779657,0,0.6,0
180,0.27174156080302586,0.2731293848757175,0.2708163447545647,0,0.6,0
181,0.27174906066038834,0.2722333271512079,0.27248061216779657,0,0.6,0
182,0.27174906066038834,0.27077709316462995,0.27175249517450767,0,0.6,0
183,0.27024158933052067,0.2705079394050776,0.2697018799689183,0,0.6,0
184,0.2724840466819159,0.26856183155768953,0.2732087291610856,0,0.6,0
185,0.27138156764962457,0.2714949066155611,0.26956814419464076,0,0.6,0
186,0.2706165821986469,0.271622404190724,0.27304527432585746,0,0.6,0
187,0.27174906066038834,0.27113428263303585,0.2713884366778631,0,0.6,0
188,0.270646581628097,0.26929338306509776,0.2706603196845742,0,0.6,0
189,0.27174156080302586,0.2693724469819662,0.2704448564926826,0,0.6,0
190,0.27138156764962457,0.2707633551081528,0.27102437818121866,0,0.6,0
191,0.2721165536711521,0.2711308481189166,0.27102437818121866,0,0.6,0
192,0.27138156764962457,0.2722333271512079,0.2713884366778631,0,0.6,0
193,0.2706165821986469,0.26975444906258084,0.2708163447545647,0,0.6,0
194,0.27138156764962457,0.2707633551081528,0.2702962611879297,0,0.6,0
195,0.27174906066038834,0.27149834112968035,0.27575713863759693,0,0.6,0
196,0.27324153227553094,0.27087592306071556,0.27007336823080047,0,0.6,0
197,0.2721165536711521,0.27112741360479725,0.2721165536711521,0,0.6,0
198,0.2728515396926796,0.27075992059403353,0.27284467066444107,0,0.6,0
199,0.2728515396926796,0.27039586209738903,0.2706603196845742,0,0.6,0
200,0.2728665394074047,0.27087942766695977,0.2726737860639753,0,0.6,0
201,0.2743215117357347,0.2720890775581978,0.27102437818121866,0,0.6,0
202,0.27579148377878976,0.2733598477823342,0.2750290216443079,0,0.6,0
203,0.27324153227553094,0.27161189037199146,0.27230229780209314,0,0.6,0
204,0.27174906066038834,0.27373077530721723,0.27248061216779657,0,0.6,0
205,0.2721165536711521,0.27263173078904523,0.26956814419464076,0,0.6,0
206,0.2721165536711521,0.2715395552991118,0.27175249517450767,0,0.6,0
207,0.27174156080302586,0.27123339289762105,0.27230229780209314,0,0.6,0
208,0.2702790886173333,0.27262829627492596,0.2732087291610856,0,0.6,0
209,0.2724840466819159,0.2722608032641622,0.27430090465101903,0,0.6,0
210,0.2713665679348995,0.27422983123638717,0.2711878330164468,0,0.6,0
211,0.2710140746388608,0.27373077530721723,0.27248061216779657,0,0.6,0
212,0.27138156764962457,0.2722573687500429,0.26956814419464076,0,0.6,0
213,0.2724915465392784,0.2742368404488756,0.2708163447545647,0,0.6,0
214,0.2721165536711521,0.2729923547715704,0.2713884366778631,0,0.6,0
215,0.27321903270344344,0.27373077530721723,0.2702962611879297,0,0.6,0
216,0.2721165536711521,0.2722608032641622,0.2732087291610856,0,0.6,0
217,0.2736165251436573,0.27161189037199146,0.27007336823080047,0,0.6,0
218,0.27138156764962457,0.27078739670698787,0.2732087291610856,0,0.6,0
219,0.27321903270344344,0.2722608032641622,0.27357278765773,0,0.6,0
220,0.2728665394074047,0.2731153664507408,0.27155932127832894,0,0.6,0
221,0.2728515396926796,0.2711617587459902,0.27248061216779657,0,0.6,0
222,0.2710140746388608,0.27336328229645346,0.27102437818121866,0,0.6,0
223,0.2721165536711521,0.2723653807144883,0.2711878330164468,0,0.6,0
224,0.27174906066038834,0.2726248617608067,0.2713884366778631,0,0.6,0
225,0.2721165536711521,0.27262829627492596,0.2732087291610856,0,0.6,0
226,0.2724840466819159,0.27079083122110714,0.27430090465101903,0,0.6,0
227,0.2728665394074047,0.2723548668957557,0.27193080954021104,0,0.6,0
228,0.2728515396926796,0.2718933102533984,0.2706603196845742,0,0.6,0
229,0.2728515396926796,0.2715292517567539,0.2732087291610856,0,0.6,0
230,0.2721165536711521,0.2723548668957557,0.27193080954021104,0,0.6,0
231,0.27138156764962457,0.2737342098213365,0.2721165536711521,0,0.6,0
232,0.27174906066038834,0.27409483380386174,0.2721165536711521,0,0.6,0
233,0.2728665394074047,0.27348335010637875,0.27341676258773956,0,0.6,0
234,0.2728515396926796,0.2733598477823342,0.27284467066444107,0,0.6,0
235,0.270646581628097,0.27409826831798106,0.2713884366778631,0,0.6,0
236,0.2735865257142072,0.27409483380386174,0.27175249517450767,0,0.6,0
237,0.27399151801178356,0.2731083572382525,0.27230229780209314,0,0.6,0
238,0.2721165536711521,0.27299578928568974,0.2706603196845742,0,0.6,0
239,0.2743215117357347,0.27262829627492596,0.2721165536711521,0,0.6,0
240,0.2724915465392784,0.2719833786338736,0.2726737860639753,0,0.6,0
241,0.27321903270344344,0.2722573687500429,0.2732087291610856,0,0.6,0
242,0.27579148377878976,0.27262829627492596,0.27102437818121866,0,0.6,0
243,0.2743665108799099,0.2731083572382525,0.27230229780209314,0,0.6,0
244,0.27542399076802604,0.2715292517567539,0.27393684615437447,0,0.6,0
245,0.2735865257142072,0.2729923547715704,0.2750290216443079,0,0.6,0
246,0.27615897678955353,0.27152581724263464,0.27357278765773,0,0.6,0
247,0.2728665394074047,0.2701154235057305,0.27341676258773956,0,0.6,0
248,0.27468900474649843,0.27409483380386174,0.27357278765773,0,0.6,0
249,0.2743215117357347,0.2722573687500429,0.27284467066444107,0,0.6,0
250,0.2743665108799099,0.27048691176761264,0.27453122737338587,0,0.6,0
251,0.2735865257142072,0.27079770024934574,0.27430090465101903,0,0.6,0
252,0.2743215117357347,0.2704233382103433,0.27430090465101903,0,0.6,0
253,0.2728515396926796,0.2711617587459902,0.27248061216779657,0,0.6,0
254,0.27324153227553094,0.2723583715019999,0.27155932127832894,0,0.6,0
255,0.2735865257142072,0.27042677272446264,0.2746649631476635,0,0.6,0
256,0.27468900474649843,0.2696952212170544,0.27284467066444107,0,0.6,0
257,0.27399151801178356,0.27122988829137684,0.2726737860639753,0,0.6,0
258,0.2743215117357347,0.27078739670698787,0.27430090465101903,0,0.6,0
259,0.27468900474649843,0.27115832423187086,0.27430090465101903,0,0.6,0
260,0.27367960805605235,0.27196936020889695,0.2711878330164468,0,0.6,0
261,0.2731606459634155,0.2738853284425852,0.2721165536711521,0,0.6,0
262,0.2738887629567045,0.27242909445600727,0.2721165536711521,0,0.6,0
263,0.27248453732679007,0.272852520982428,0.274902715635268,0,0.6,0
264,0.27059849843042705,0.27643717243321586,0.27575713863759693,0,0.6,0
265,0.2706053674586656,0.2753415624291631,0.27284467066444107,0,0.6,0
266,0.27061223648690413,0.27497750393251863,0.27430090465101903,0,0.6,0
267,0.2706235914111353,0.27433847402995654,0.27193080954021104,0,0.6,0
268,0.2691388299297298,0.27679779641574104,0.27248061216779657,0,0.6,0
269,0.2702378744479018,0.27425282145334895,0.2721165536711521,0,0.6,0
270,0.2698736056748827,0.27619941994561126,0.27155932127832894,0,0.6,0
271,0.2691456989579684,0.2760696794224521,0.27430090465101903,0,0.6,0
272,0.26950975745461286,0.27497750393251863,0.27357278765773,0,0.6,0
273,0.2695021174130006,0.27508145055372074,0.27007336823080047,0,0.6,0
274,0.2691456989579684,0.27607311393657136,0.27248061216779657,0,0.6,0
275,0.27134035348019314,0.27498093844663796,0.2721165536711521,0,0.6,0
276,0.27134035348019314,0.27716185491238554,0.2721165536711521,0,0.6,0
277,0.2706235914111353,0.2769459010756197,0.2726737860639753,0,0.6,0
278,0.27134035348019314,0.2738853284425852,0.27393684615437447,0,0.6,0
279,0.27133348445195454,0.2731572114492962,0.27357278765773,0,0.6,0
280,0.2713665679348995,0.27470996229183864,0.27230229780209314,0,0.6,0
281,0.26951662648285146,0.27352470446006,0.27175249517450767,0,0.6,0
282,0.2720650359593628,0.27387845941434663,0.2721165536711521,0,0.6,0
283,0.27099858427926155,0.2747134668980828,0.2711878330164468,0,0.6,0
284,0.2720684704734821,0.2727862839244132,0.27248061216779657,0,0.6,0
285,0.26987038143713804,0.2760696794224521,0.2721165536711521,0,0.6,0
286,0.26987725046537664,0.27497406941839936,0.27284467066444107,0,0.6,0
287,0.27136306332865534,0.275824427077485,0.27193080954021104,0,0.6,0
288,0.2713369189660738,0.2768012309298603,0.27175249517450767,0,0.6,0
289,0.2702413089620211,0.27607311393657136,0.2721165536711521,0,0.6,0
290,0.27136306332865534,0.27582793168372916,0.27415973911150376,0,0.6,0
291,0.27024474347614036,0.27789340641979376,0.2721165536711521,0,0.6,0
292,0.26914226444384914,0.27643717243321586,0.2713884366778631,0,0.6,0
293,0.2698771102811269,0.27545644342184705,0.27378825084962166,0,0.6,0
294,0.27097286046942937,0.2746134454358742,0.27102437818121866,0,0.6,0
295,0.2720684704734821,0.2768012309298603,0.2702962611879297,0,0.6,0
296,0.2706019329445463,0.27570905543992685,0.27357278765773,0,0.6,0
297,0.27099858427926155,0.27470996229183864,0.27155932127832894,0,0.6,0
298,0.27242909445600727,0.2720650359593628,0.27284467066444107,0,0.6,0
299,0.2724325289701266,0.2753449969432824,0.27248061216779657,0,0.6,0
300,0.2724810327205459,0.2747064576855945,0.27453122737338587,0,0.6,0
301,0.2687782059472046,0.27461687994999345,0.2713884366778631,0,0.6,0
302,0.2706053674586656,0.2746100109217549,0.2713884366778631,0,0.6,0
303,0.2713665679348995,0.27470996229183864,0.27007336823080047,0,0.6,0
304,0.2720650359593628,0.27497750393251863,0.2721165536711521,0,0.6,0
305,0.26987725046537664,0.27497406941839936,0.27357278765773,0,0.6,0
306,0.27206160144524355,0.2742493869392297,0.27284467066444107,0,0.6,0
307,0.27137007254114365,0.2735954975061922,0.27453122737338587,0,0.6,0
308,0.27097286046942937,0.27607311393657136,0.27248061216779657,0,0.6,0
309,0.2709694259553101,0.27498093844663796,0.27357278765773,0,0.6,0
310,0.27173805619678165,0.27320999081933345,0.27193080954021104,0,0.6,0
311,0.2717009774627183,0.27497750393251863,0.2732087291610856,0,0.6,0
312,0.27132661542371594,0.2753415624291631,0.27393684615437447,0,0.6,0
313,0.270248598543009,0.2747134668980828,0.27378825084962166,0,0.6,0
314,0.2702413089620211,0.2746134454358742,0.2732087291610856,0,0.6,0
315,0.2731572114492962,0.27461687994999345,0.2732087291610856,0,0.6,0
316,0.2717044119768376,0.2746134454358742,0.27175249517450767,0,0.6,0
317,0.27211304906490796,0.27433847402995654,0.2726737860639753,0,0.6,0
318,0.27206160144524355,0.271697542948599,0.2750290216443079,0,0.6,0
319,0.27133004993783527,0.27410170283210034,0.2730679140821948,0,0.6,0
320,0.27173455159053744,0.26862246124571365,0.26886077447031725,0,0.6,0
321,0.2731537769351769,0.27190017928163696,0.27090073567292433,0,0.6,0
322,0.2717044119768376,0.2704302072385819,0.2683282845975779,0,0.6,0
323,0.27248453732679007,0.27010490968699796,0.2681107887340647,0,0.6,0
324,0.26987038143713804,0.2722608032641622,0.2679607915868142,0,0.6,0
325,0.2702378744479018,0.2711617587459902,0.27053324266216056,0,0.6,0
326,0.2717009774627183,0.272999223799809,0.27090073567292433,0,0.6,0
327,0.2687591408892363,0.2723548668957557,0.2699857530746962,0,0.6,0
328,0.27097286046942937,0.273727340793098,0.2716357216944518,0,0.6,0
329,0.2702413089620211,0.27042677272446264,0.2723707077159794,0,0.6,0
330,0.27025210314925313,0.2723653807144883,0.27073573881094876,0,0.6,0
331,0.2717044119768376,0.27336328229645346,0.2731056937375069,0,0.6,0
332,0.2706088019727849,0.275197312836153,0.2683282845975779,0,0.6,0
333,0.2706200868048911,0.2723548668957557,0.2696107602065699,0,0.6,0
334,0.2706019329445463,0.273727340793098,0.27016574965139684,0,0.6,0
335,0.2709694259553101,0.27409826831798106,0.27126822868368805,0,0.6,0
336,0.2702413089620211,0.2722573687500429,0.27090073567292433,0,0.6,0
337,0.27025210314925313,0.2719833786338736,0.27073573881094876,0,0.6,0
338,0.27134035348019314,0.2729923547715704,0.27053324266216056,0,0.6,0
339,0.271697542948599,0.2729923547715704,0.27090073567292433,0,0.6,0
340,0.27174156080302586,0.2689939495075958,0.268485781602191,0,0.6,0
341,0.2702413089620211,0.2729923547715704,0.27090073567292433,0,0.6,0
342,0.2717044119768376,0.2733667168105728,0.27090073567292433,0,0.6,0
343,0.27137007254114365,0.27048691176761264,0.27073573881094876,0,0.6,0
344,0.2702344399337825,0.270801134763465,0.269798256640633,0,0.6,0
345,0.2702378744479018,0.273727340793098,0.27126822868368805,0,0.6,0
346,0.2720684704734821,0.27262829627492596,0.27126822868368805,0,0.6,0
347,0.2698771102811269,0.27272985976388203,0.268485781602191,0,0.6,0
348,0.2698841194936152,0.2722642377782815,0.2679607915868142,0,0.6,0
349,0.2713369189660738,0.273727340793098,0.27126822868368805,0,0.6,0
350,0.2706235914111353,0.2708619046357389,0.268485781602191,0,0.6,0
351,0.2698806849794959,0.2726248617608067,0.27126822868368805,0,0.6,0
352,0.2702413089620211,0.27152238272851537,0.2690632706191055,0,0.6,0
353,0.27134035348019314,0.27409826831798106,0.27053324266216056,0,0.6,0
354,0.27025210314925313,0.2731083572382525,0.271110731679075,0,0.6,0
355,0.2706053674586656,0.27262829627492596,0.27200321470521566,0,0.6,0
356,0.27097286046942937,0.2722608032641622,0.27126822868368805,0,0.6,0
357,0.2721060398524196,0.27273336437012624,0.26923576733844357,0,0.6,0
358,0.27133348445195454,0.2718967447675177,0.2731056937375069,0,0.6,0
359,0.2717009774627183,0.2711617587459902,0.2683282845975779,0,0.6,0
360,0.2732240092443101,0.2723548668957557,0.2714857245472013,0,0.6,0
361,0.2720684704734821,0.27152581724263464,0.27126822868368805,0,0.6,0
362,0.271697542948599,0.27079083122110714,0.27126822868368805,0,0.6,0
363,0.27024158933052067,0.27048691176761264,0.2714857245472013,0,0.6,0
364,0.2724325289701266,0.27116519326010946,0.2723707077159794,0,0.6,0
365,0.2731606459634155,0.27299578928568974,0.2738406797590345,0,0.6,0
366,0.2713369189660738,0.27262829627492596,0.27090073567292433,0,0.6,0
367,0.2721060398524196,0.2719833786338736,0.271110731679075,0,0.6,0
368,0.27279658746677105,0.2722608032641622,0.27200321470521566,0,0.6,0
369,0.2720684704734821,0.27263173078904523,0.27126822868368805,0,0.6,0
370,0.27211304906490796,0.27311186184449665,0.2714857245472013,0,0.6,0
371,0.27279658746677105,0.2704199036962241,0.2731056937375069,0,0.6,0
372,0.2742493869392297,0.26932429369217137,0.2731056937375069,0,0.6,0
373,0.27498093844663796,0.27079083122110714,0.27126822868368805,0,0.6,0
374,0.2747134668980828,0.2704904163738568,0.2729856960197065,0,0.6,0
375,0.2717044119768376,0.27410170283210034,0.27053324266216056,0,0.6,0
376,0.2746134454358742,0.27152581724263464,0.27273820072674315,0,0.6,0
377,0.2743419786362007,0.27124040211010936,0.27186071741532764,0,0.6,0
378,0.27425282145334895,0.26895680068140754,0.2738406797590345,0,0.6,0
379,0.2742974701368997,0.27005927971369886,0.27090073567292433,0,0.6,0
380,0.2708548954232506,0.26973342142511586,0.2681107887340647,0,0.6,0
381,0.27152238272851537,0.2718898757392791,0.27053324266216056,0,0.6,0
382,0.2689533661672883,0.2693311627204099,0.2723707077159794,0,0.6,0
383,0.2723548668957557,0.2682439637713432,0.27036074594282244,0,0.6,0
384,0.26968491767469654,0.2715292517567539,0.27200321470521566,0,0.6,0
385,0.27005927971369886,0.27373077530721723,0.2731056937375069,0,0.6,0
386,0.26932085917805204,0.2718933102533984,0.27090073567292433,0,0.6,0
387,0.26897993108261914,0.2719798740276294,0.268485781602191,0,0.6,0
388,0.26968491767469654,0.27262829627492596,0.2731056937375069,0,0.6,0
389,0.27005241068546026,0.2718967447675177,0.27053324266216056,0,0.6,0
390,0.2686189566394695,0.27348335010637875,0.2733606888878328,0,0.6,0
391,0.26895680068140754,0.2722608032641622,0.27016574965139684,0,0.6,0
392,0.26931742466393277,0.273727340793098,0.27016574965139684,0,0.6,0
393,0.2711548897177516,0.2744623268146255,0.269798256640633,0,0.6,0
394,0.26974043063760417,0.27122988829137684,0.2729856960197065,0,0.6,0
395,0.268949931653169,0.2726248617608067,0.27347318674827065,0,0.6,0
396,0.26861194742698113,0.2746083287107577,0.2726107031515802,0,0.6,0
397,0.2696883521888158,0.2722642377782815,0.2716357216944518,0,0.6,0
398,0.26931742466393277,0.2715292517567539,0.27053324266216056,0,0.6,0
399,0.26713307368406586,0.27153268627087324,0.2723707077159794,0,0.6,0
400,0.2693654377694779,0.2727263551576379,0.2726107031515802,0,0.6,0
401,0.2700558451995796,0.27078739670698787,0.27090073567292433,0,0.6,0
402,0.2689533661672883,0.2722642377782815,0.26943076362986923,0,0.6,0
403,0.2708548954232506,0.27085840002949474,0.2737356817559591,0,0.6,0
404,0.26931742466393277,0.2715292517567539,0.27090073567292433,0,0.6,0
405,0.26931742466393277,0.2715292517567539,0.27494315879132575,0,0.6,0
406,0.26968491767469654,0.273727340793098,0.2723707077159794,0,0.6,0
407,0.26936193316323376,0.2723548668957557,0.2722357102834539,0,0.6,0
408,0.26931742466393277,0.27115832423187086,0.2716357216944518,0,0.6,0
409,0.2674833941242332,0.272999223799809,0.27200321470521566,0,0.6,0
410,0.2689834356888633,0.2716083857657473,0.2722357102834539,0,0.6,0
411,0.26931742466393277,0.2704233382103433,0.27126822868368805,0,0.6,0
412,0.27078739670698787,0.2722608032641622,0.27090073567292433,0,0.6,0
413,0.26785845708448436,0.2712368975038652,0.2733606888878328,0,0.6,0
414,0.26785432164911627,0.2737342098213365,0.2683282845975779,0,0.6,0
415,0.27152581724263464,0.2722608032641622,0.2731056937375069,0,0.6,0
416,0.2696917867029351,0.27079083122110714,0.2731056937375069,0,0.6,0
417,0.2704799025551243,0.27272985976388203,0.2726107031515802,0,0.6,0
418,0.2711548897177516,0.27410170283210034,0.27200321470521566,0,0.6,0
419,0.2682252491739993,0.27336328229645346,0.2723707077159794,0,0.6,0
420,0.27010490968699796,0.2723653807144883,0.271110731679075,0,0.6,0
421,0.27005241068546026,0.272999223799809,0.27126822868368805,0,0.6,0
422,0.26931742466393277,0.275197312836153,0.27200321470521566,0,0.6,0
423,0.27152238272851537,0.27079083122110714,0.269798256640633,0,0.6,0
424,0.2704799025551243,0.2712368975038652,0.27448566749221165,0,0.6,0
425,0.2704233382103433,0.27152238272851537,0.27126822868368805,0,0.6,0
426,0.27152238272851537,0.2718967447675177,0.27200321470521566,0,0.6,0
427,0.27010490968699796,0.27124040211010936,0.2722357102834539,0,0.6,0
428,0.26858930767064376,0.2711617587459902,0.27126822868368805,0,0.6,0
429,0.26931742466393277,0.27299578928568974,0.27347318674827065,0,0.6,0
430,0.2708548954232506,0.27161189037199146,0.2714857245472013,0,0.6,0
431,0.27152238272851537,0.27263859981728383,0.27016574965139684,0,0.6,0
432,0.268949931653169,0.2729923547715704,0.27126822868368805,0,0.6,0
433,0.27078739670698787,0.2733598477823342,0.2723707077159794,0,0.6,0
434,0.26936193316323376,0.2719798740276294,0.2726107031515802,0,0.6,0
435,0.26968491767469654,0.27115832423187086,0.27090073567292433,0,0.6,0
436,0.2711548897177516,0.2726248617608067,0.269798256640633,0,0.6,0
437,0.2686084428207369,0.27422983123638717,0.27036074594282244,0,0.6,0
438,0.2715292517567539,0.27262829627492596,0.27126822868368805,0,0.6,0
439,0.2738887629567045,0.2722573687500429,0.27090073567292433,0,0.6,0
440,0.2747134668980828,0.2742333358426313,0.2696107602065699,0,0.6,0
441,0.2720684704734821,0.2711548897177516,0.27200321470521566,0,0.6,0
442,0.2720650359593628,0.27152581724263464,0.27016574965139684,0,0.6,0
443,0.27279658746677105,0.27152581724263464,0.27053324266216056,0,0.6,0
444,0.2713665679348995,0.2723583715019999,0.2696107602065699,0,0.6,0
445,0.271697542948599,0.2722642377782815,0.26943076362986923,0,0.6,0
446,0.2727931529526517,0.2722608032641622,0.2690632706191055,0,0.6,0
447,0.27248453732679007,0.2701119188994863,0.2726107031515802,0,0.6,0
448,0.2717044119768376,0.2733598477823342,0.2716357216944518,0,0.6,0
449,0.27206160144524355,0.2744691958428641,0.27273820072674315,0,0.6,0
450,0.27099858427926155,0.2719833786338736,0.2714857245472013,0,0.6,0
451,0.27024474347614036,0.2726248617608067,0.2742081727697982,0,0.6,0
452,0.27242909445600727,0.27262829627492596,0.27163228718033255,0,0.6,0
453,0.2717009774627183,0.2718933102533984,0.2690632706191055,0,0.6,0
454,0.27099157506677324,0.2723548668957557,0.2681107887340647,0,0.6,0
455,0.2706088019727849,0.27336328229645346,0.27126822868368805,0,0.6,0
456,0.2709694259553101,0.27409483380386174,0.27016574965139684,0,0.6,0
457,0.2743419786362007,0.2708619046357389,0.2722357102834539,0,0.6,0
458,0.2724325289701266,0.27115832423187086,0.2683282845975779,0,0.6,0
459,0.27134035348019314,0.2718967447675177,0.26869577760834173,0,0.6,0
460,0.27211304906490796,0.27160488115950315,0.26886077447031725,0,0.6,0
461,0.271697542948599,0.2704302072385819,0.27016574965139684,0,0.6,0
462,0.2702378744479018,0.27556480584691684,0.27053324266216056,0,0.6,0
463,0.27097629498354864,0.273727340793098,0.27016574965139684,0,0.6,0
464,0.27137007254114365,0.2701084142932421,0.271110731679075,0,0.6,0
465,0.2735212699459407,0.2722608032641622,0.27053324266216056,0,0.6,0
466,0.2717009774627183,0.2715292517567539,0.27126822868368805,0,0.6,0
467,0.27099858427926155,0.27310485263200834,0.26886077447031725,0,0.6,0
468,0.2706088019727849,0.2696917867029351,0.2683282845975779,0,0.6,0
469,0.27134035348019314,0.27409826831798106,0.2723707077159794,0,0.6,0
470,0.2709950796730174,0.27497631236639564,0.27073573881094876,0,0.6,0
471,0.27097286046942937,0.273727340793098,0.2716357216944518,0,0.6,0
472,0.2702413089620211,0.2726248617608067,0.26943076362986923,0,0.6,0
473,0.27134035348019314,0.27152581724263464,0.269798256640633,0,0.6,0
474,0.27136306332865534,0.27310485263200834,0.2696107602065699,0,0.6,0
475,0.27133348445195454,0.2726248617608067,0.2716357216944518,0,0.6,0
476,0.27134035348019314,0.2737239062789787,0.27016574965139684,0,0.6,0
477,0.27211304906490796,0.27310485263200834,0.2714857245472013,0,0.6,0
478,0.2724325289701266,0.2733598477823342,0.2690632706191055,0,0.6,0
479,0.2713369189660738,0.2704233382103433,0.2723707077159794,0,0.6,0
480,0.27099858427926155,0.27272985976388203,0.271110731679075,0,0.6,0
481,0.27206160144524355,0.27079770024934574,0.26943076362986923,0,0.6,0
482,0.27206160144524355,0.27373077530721723,0.26943076362986923,0,0.6,0
483,0.2720650359593628,0.27482981982538923,0.269798256640633,0,0.6,0
484,0.2709950796730174,0.27123339289762105,0.2696107602065699,0,0.6,0
485,0.2720650359593628,0.27262829627492596,0.2690632706191055,0,0.6,0
486,0.2717044119768376,0.2696986557311737,0.2657558335222316,0,0.6,0
487,0.27211304906490796,0.27272985976388203,0.271110731679075,0,0.6,0
488,0.2717044119768376,0.2718967447675177,0.269798256640633,0,0.6,0
489,0.27134035348019314,0.2707942657352264,0.2683282845975779,0,0.6,0
490,0.27322751385055427,0.27198688324011777,0.2714857245472013,0,0.6,0
491,0.2742493869392297,0.27115832423187086,0.26722580556528663,0,0.6,0
492,0.27242909445600727,0.27152581724263464,0.2683282845975779,0,0.6,0
493,0.2727931529526517,0.2718898757392791,0.2679607915868142,0,0.6,0
494,0.27359900211243643,0.27123339289762105,0.2681107887340647,0,0.6,0
495,0.27498093844663796,0.26932429369217137,0.2675932985760504,0,0.6,0
496,0.2738887629567045,0.2704233382103433,0.2716357216944518,0,0.6,0
497,0.2724810327205459,0.27122988829137684,0.26773579586593843,0,0.6,0
498,0.2706774922551706,0.2725252608513473,0.2735968292565651,0,0.6,0
499,0.2711548897177516,0.27206160144524355,0.2733323716693799,0,0.6,0
500,0.2708548954232506,0.2709425105793548,0.2723723899269766,0,0.6,0
501,0.27005241068546026,0.272521826337228,0.2733323716693799,0,0.6,0
502,0.27005241068546026,0.27371016822250155,0.2740673576909074,0,0.6,0
503,0.26784745262087767,0.27206160144524355,0.2736998646801437,0,0.6,0
504,0.27085840002949474,0.27299620983843903,0.2753723328719869,0,0.6,0
505,0.2689533661672883,0.27055728426099557,0.2744348507016712,0,0.6,0
506,0.26968491767469654,0.272473743139558,0.27112741360479725,0,0.6,0
507,0.2682299453463665,0.27378825084962166,0.27574732574011324,0,0.6,0
508,0.27299578928568974,0.273249943330517,0.2773747947877813,0,0.6,0
509,0.2696883521888158,0.272425659941888,0.2733323716693799,0,0.6,0
510,0.2701119188994863,0.27462935634822266,0.27199739705885034,0,0.6,0
511,0.27079083122110714,0.27164945975092897,0.2744348507016712,0,0.6,0
512,0.2685824386424052,0.272521826337228,0.2751698367231987,0,0.6,0
513,0.27005241068546026,0.275722793496404,0.2740673576909074,0,0.6,0
514,0.26898694029510745,0.27351489156257636,0.27574732574011324,0,0.6,0
515,0.26785432164911627,0.273298026528187,0.2751698367231987,0,0.6,0
516,0.2700558451995796,0.2721096846429135,0.2722298926370886,0,0.6,0
517,0.27010490968699796,0.272155104339838,0.27424735426760805,0,0.6,0
518,0.2704233382103433,0.272425659941888,0.2766398087662538,0,0.6,0
519,0.26858930767064376,0.272425659941888,0.2744348507016712,0,0.6,0
520,0.26935842855698955,0.27178361607795587,0.27462234713573436,0,0.6,0
521,0.2722573687500429,0.2736620850248315,0.27259738564785235,0,0.6,0
522,0.2696883521888158,0.27092134275764007,0.2777422877985451,0,0.6,0
523,0.27005241068546026,0.271697542948599,0.2740673576909074,0,0.6,0
524,0.2697299168188717,0.27378825084962166,0.27574732574011324,0,0.6,0
525,0.26858930767064376,0.271697542948599,0.2744348507016712,0,0.6,0
526,0.2674902631524718,0.27206160144524355,0.2773747947877813,0,0.6,0
527,0.26936193316323376,0.27378825084962166,0.27574732574011324,0,0.6,0
528,0.2696883521888158,0.272473743139558,0.2751698367231987,0,0.6,0
529,0.27078739670698787,0.274074226719146,0.274802343712435,0,0.6,0
530,0.2693549239507454,0.27341676258773956,0.2749973400038606,0,0.6,0
531,0.26895680068140754,0.2729339680315425,0.2740673576909074,0,0.6,0
532,0.26821838014576077,0.27215776784058354,0.2755373297339625,0,0.6,0
533,0.26968491767469654,0.27288588483387255,0.2744348507016712,0,0.6,0
534,0.2678549524782402,0.27252659260172013,0.2749973400038606,0,0.6,0
535,0.26968491767469654,0.272521826337228,0.2744348507016712,0,0.6,0
536,0.2704233382103433,0.2753106518020895,0.2729648786586162,0,0.6,0
537,0.2693549239507454,0.27299620983843903,0.2764973114763658,0,0.6,0
538,0.26932085917805204,0.272425659941888,0.274802343712435,0,0.6,0
539,0.2689533661672883,0.273298026528187,0.2736998646801437,0,0.6,0
540,0.2689834356888633,0.27383731533704003,0.27612231860823955,0,0.6,0
541,0.2674902631524718,0.2728378016362025,0.2740673576909074,0,0.6,0
542,0.2689533661672883,0.274946593305445,0.2759048227447263,0,0.6,0
543,0.2689533661672883,0.273249943330517,0.27627231575549,0,0.6,0
544,0.26973692603136,0.2726247215765569,0.27424735426760805,0,0.6,0
545,0.26931742466393277,0.27339419292352707,0.2744348507016712,0,0.6,0
546,0.268949931653169,0.2733461097258571,0.274802343712435,0,0.6,0
547,0.2708548954232506,0.27337120270656534,0.27462234713573436,0,0.6,0
548,0.2689533661672883,0.27535873499975955,0.27627231575549,0,0.6,0
549,0.268949931653169,0.27453445161113055,0.2744348507016712,0,0.6,0
550,0.2701084142932421,0.27341676258773956,0.2738723613994818,0,0.6,0
551,0.2689533661672883,0.27453445161113055,0.2722298926370886,0,0.6,0
552,0.26821838014576077,0.27288588483387255,0.2770073017770176,0,0.6,0
553,0.2682299453463665,0.2763115673454247,0.27462234713573436,0,0.6,0
554,0.267850887134997,0.2741703931144861,0.27627231575549,0,0.6,0
555,0.2700558451995796,0.2753106518020895,0.2759048227447263,0,0.6,0
556,0.2700558451995796,0.274946593305445,0.2751698367231987,0,0.6,0
557,0.2719132865089902,0.2738548383682609,0.2717065147405841,0,0.6,0
558,0.2698806849794959,0.26782341102204266,0.2721165536711521,0,0.6,0
559,0.2702413089620211,0.2696574415617422,0.27248061216779657,0,0.6,0
560,0.27137007254114365,0.2693759515882104,0.27230229780209314,0,0.6,0
561,0.27133348445195454,0.26929681757921703,0.27284467066444107,0,0.6,0
562,0.27242909445600727,0.2707633551081528,0.27430090465101903,0,0.6,0
563,0.2706165821986469,0.2682544775900757,0.27304527432585746,0,0.6,0
564,0.2717044119768376,0.27259738564785235,0.27284467066444107,0,0.6,0
565,0.27242909445600727,0.2733323716693799,0.27175249517450767,0,0.6,0
566,0.27096599144119077,0.268925890054334,0.27393684615437447,0,0.6,0
567,0.27211304906490796,0.26974743985009253,0.27341676258773956,0,0.6,0
568,0.272425659941888,0.2700283690866253,0.2699322026912852,0,0.6,0
569,0.27352470446006,0.27149834112968035,0.27175249517450767,0,0.6,0
570,0.27137007254114365,0.27012593732446305,0.2711878330164468,0,0.6,0
571,0.2713369189660738,0.27112741360479725,0.2732087291610856,0,0.6,0
572,0.2709694259553101,0.2700283690866253,0.27248061216779657,0,0.6,0
573,0.2720684704734821,0.26929681757921703,0.27102437818121866,0,0.6,0
574,0.27173455159053744,0.27087592306071556,0.27341676258773956,0,0.6,0
575,0.2709694259553101,0.2707633551081528,0.2732087291610856,0,0.6,0
576,0.2720684704734821,0.27039242758326976,0.27284467066444107,0,0.6,0
577,0.272852520982428,0.27162590879696813,0.27155932127832894,0,0.6,0
578,0.2717044119768376,0.27002493457250604,0.2706603196845742,0,0.6,0
579,0.271697542948599,0.2696608760758615,0.27175249517450767,0,0.6,0
580,0.27211304906490796,0.26975444906258084,0.27230229780209314,0,0.6,0
581,0.2738853284425852,0.27039242758326976,0.2713884366778631,0,0.6,0
582,0.27097629498354864,0.27186239962632486,0.27430090465101903,0,0.6,0
583,0.270248598543009,0.26862596585195786,0.2726737860639753,0,0.6,0
584,0.271697542948599,0.2711308481189166,0.27248061216779657,0,0.6,0
585,0.27242909445600727,0.2714949066155611,0.2750290216443079,0,0.6,0
586,0.2717009774627183,0.268925890054334,0.2732087291610856,0,0.6,0
587,0.27137007254114365,0.2693794561944546,0.2726737860639753,0,0.6,0
588,0.2731572114492962,0.2689327590825726,0.27102437818121866,0,0.6,0
589,0.2717009774627183,0.27075992059403353,0.2713884366778631,0,0.6,0
590,0.2721060398524196,0.271622404190724,0.2726737860639753,0,0.6,0
591,0.2709694259553101,0.2711308481189166,0.27357278765773,0,0.6,0
592,0.27279658746677105,0.267826845536162,0.27357278765773,0,0.6,0
593,0.2720650359593628,0.27186583414044413,0.27248061216779657,0,0.6,0
594,0.2732240092443101,0.2708724184544714,0.26933039170703615,0,0.6,0
595,0.2709694259553101,0.27149834112968035,0.27393684615437447,0,0.6,0
596,0.2731606459634155,0.27075992059403353,0.2706603196845742,0,0.6,0
597,0.27136306332865534,0.27312237566322917,0.27230229780209314,0,0.6,0
598,0.2717044119768376,0.2711308481189166,0.2721165536711521,0,0.6,0
599,0.2713369189660738,0.26929681757921703,0.2732087291610856,0,0.6,0
600,0.2721095444586638,0.2708724184544714,0.27304527432585746,0,0.6,0
601,0.271697542948599,0.26818746951868716,0.2750290216443079,0,0.6,0
602,0.27279658746677105,0.27002493457250604,0.27175249517450767,0,0.6,0
603,0.27097286046942937,0.27039242758326976,0.2706603196845742,0,0.6,0
604,0.27211304906490796,0.26900446332632827,0.27341676258773956,0,0.6,0
605,0.2731606459634155,0.2685583970435702,0.2721165536711521,0,0.6,0
606,0.27461687994999345,0.2693002520933363,0.27284467066444107,0,0.6,0
607,0.27248453732679007,0.27012593732446305,0.27378825084962166,0,0.6,0
608,0.2720684704734821,0.26928994855097843,0.27357278765773,0,0.6,0
609,0.27278971843853245,0.2681943385469257,0.27248061216779657,0,0.6,0
610,0.27397049037431853,0.26675100151132636,0.2726737860639753,0,0.6,0
611,0.2738887629567045,0.2696677451041001,0.2746649631476635,0,0.6,0
612,0.2753415624291631,0.2689224555402147,0.2750290216443079,0,0.6,0
613,0.2747134668980828,0.2693724469819662,0.27304527432585746,0,0.6,0
614,0.27498093844663796,0.2707633551081528,0.2721165536711521,0,0.6,0
615,0.2746134454358742,0.26856183155768953,0.27284467066444107,0,0.6,0
616,0.27497406941839936,0.2689327590825726,0.27284467066444107,0,0.6,0
617,0.27039228739902,0.27320999081933345,0.27304527432585746,0,0.6,0
618,0.27152581724263464,0.2718898757392791,0.27248061216779657,0,0.6,0
619,0.2726248617608067,0.2693311627204099,0.2721165536711521,0,0.6,0
620,0.27122988829137684,0.2704834071613684,0.27193080954021104,0,0.6,0
621,0.2729923547715704,0.27005927971369886,0.27248061216779657,0,0.6,0
622,0.27152581724263464,0.2707942657352264,0.27393684615437447,0,0.6,0
623,0.27122988829137684,0.26974043063760417,0.27453122737338587,0,0.6,0
624,0.2726248617608067,0.2718967447675177,0.27430090465101903,0,0.6,0
625,0.27005241068546026,0.2722608032641622,0.2746649631476635,0,0.6,0
626,0.27160488115950315,0.27122988829137684,0.274902715635268,0,0.6,0
627,0.2711548897177516,0.27152238272851537,0.2706603196845742,0,0.6,0
628,0.2722573687500429,0.27005927971369886,0.27102437818121866,0,0.6,0
629,0.26932429369217137,0.2722573687500429,0.27430090465101903,0,0.6,0
630,0.2704799025551243,0.2719798740276294,0.27304527432585746,0,0.6,0
631,0.27005241068546026,0.2726248617608067,0.27393684615437447,0,0.6,0
632,0.2718933102533984,0.275197312836153,0.27284467066444107,0,0.6,0
633,0.27122988829137684,0.2723583715019999,0.27304527432585746,0,0.6,0
634,0.26931742466393277,0.2744657613287448,0.27284467066444107,0,0.6,0
635,0.26858930767064376,0.2744623268146255,0.2732087291610856,0,0.6,0
636,0.2711548897177516,0.2718898757392791,0.27284467066444107,0,0.6,0
637,0.27122988829137684,0.2712439067163535,0.27415973911150376,0,0.6,0
638,0.2733598477823342,0.27190704830987555,0.27248061216779657,0,0.6,0
639,0.27078739670698787,0.2711548897177516,0.27248061216779657,0,0.6,0
640,0.2719798740276294,0.27123339289762105,0.27341676258773956,0,0.6,0
641,0.2726248617608067,0.2704233382103433,0.2732087291610856,0,0.6,0
642,0.2700558451995796,0.27079083122110714,0.27284467066444107,0,0.6,0
643,0.27122988829137684,0.2701084142932421,0.27378825084962166,0,0.6,0
644,0.273727340793098,0.2733598477823342,0.27357278765773,0,0.6,0
645,0.27152238272851537,0.2704233382103433,0.2702962611879297,0,0.6,0
646,0.27152238272851537,0.2729923547715704,0.27284467066444107,0,0.6,0
647,0.2697299168188717,0.2704834071613684,0.27415973911150376,0,0.6,0
648,0.27152238272851537,0.27042677272446264,0.27102437818121866,0,0.6,0
649,0.2689533661672883,0.2722608032641622,0.2732087291610856,0,0.6,0
650,0.27122988829137684,0.2716083857657473,0.27341676258773956,0,0.6,0
651,0.2711548897177516,0.2704233382103433,0.2713884366778631,0,0.6,0
652,0.27078739670698787,0.27262142724668736,0.2721165536711521,0,0.6,0
653,0.2704199036962241,0.273727340793098,0.27575713863759693,0,0.6,0
654,0.2697299168188717,0.2738548383682609,0.27378825084962166,0,0.6,0
655,0.2689533661672883,0.2722573687500429,0.27393684615437447,0,0.6,0
656,0.27005241068546026,0.2729923547715704,0.27430090465101903,0,0.6,0
657,0.2719798740276294,0.2723548668957557,0.27415973911150376,0,0.6,0
658,0.26895680068140754,0.27078739670698787,0.2732087291610856,0,0.6,0
659,0.27160488115950315,0.2734798455001346,0.2726737860639753,0,0.6,0
660,0.2726248617608067,0.27079083122110714,0.2721165536711521,0,0.6,0
661,0.27042677272446264,0.2711617587459902,0.27248061216779657,0,0.6,0
662,0.27005241068546026,0.27042677272446264,0.2732087291610856,0,0.6,0
663,0.2712368975038652,0.274615337923246,0.27304527432585746,0,0.6,0
664,0.2689533661672883,0.2722573687500429,0.2702962611879297,0,0.6,0
665,0.268949931653169,0.2718898757392791,0.2706603196845742,0,0.6,0
666,0.27010490968699796,0.27310485263200834,0.27341676258773956,0,0.6,0
667,0.2718933102533984,0.27079083122110714,0.27102437818121866,0,0.6,0
668,0.2685824386424052,0.27006271422781813,0.27248061216779657,0,0.6,0
669,0.2696883521888158,0.2726248617608067,0.2732087291610856,0,0.6,0
670,0.26823344995261067,0.2716083857657473,0.27304527432585746,0,0.6,0
671,0.268949931653169,0.2726248617608067,0.2702962611879297,0,0.6,0
672,0.27078739670698787,0.27079083122110714,0.27284467066444107,0,0.6,0
673,0.27122988829137684,0.27310485263200834,0.27304527432585746,0,0.6,0
674,0.2704233382103433,0.27409826831798106,0.27175249517450767,0,0.6,0
675,0.2696883521888158,0.2711548897177516,0.2750290216443079,0,0.6,0
676,0.2725664750207788,0.2718933102533984,0.26884002720135175,0,0.6,0
677,0.27359900211243643,0.27273336437012624,0.27341676258773956,0,0.6,0
678,0.2731606459634155,0.27079083122110714,0.27357278765773,0,0.6,0
679,0.27352470446006,0.2711617587459902,0.27357278765773,0,0.6,0
680,0.27359900211243643,0.27161189037199146,0.27193080954021104,0,0.6,0
681,0.2731606459634155,0.27227110680652,0.27284467066444107,0,0.6,0
682,0.2753415624291631,0.2729923547715704,0.2732087291610856,0,0.6,0
683,0.27322751385055427,0.2734798455001346,0.27230229780209314,0,0.6,0
684,0.27279658746677105,0.27152238272851537,0.2746649631476635,0,0.6,0
685,0.27279658746677105,0.2718933102533984,0.2746649631476635,0,0.6,0
686,0.2702413089620211,0.27115832423187086,0.2732087291610856,0,0.6,0
687,0.27173455159053744,0.2719938924526061,0.26933039170703615,0,0.6,0
688,0.27498093844663796,0.273727340793098,0.2721165536711521,0,0.6,0
689,0.27279658746677105,0.27409483380386174,0.27248061216779657,0,0.6,0
690,0.2732240092443101,0.2746083287107577,0.27378825084962166,0,0.6,0
691,0.2738853284425852,0.2718933102533984,0.2699322026912852,0,0.6,0
692,0.2717044119768376,0.2711617587459902,0.2713884366778631,0,0.6,0
693,0.27285602558867217,0.2738548383682609,0.27415973911150376,0,0.6,0
694,0.2717044119768376,0.273727340793098,0.27284467066444107,0,0.6,0
695,0.27279658746677105,0.27115832423187086,0.27248061216779657,0,0.6,0
696,0.2724325289701266,0.27336328229645346,0.2706603196845742,0,0.6,0
697,0.2713665679348995,0.274226326630143,0.27155932127832894,0,0.6,0
698,0.2731606459634155,0.2718933102533984,0.27175249517450767,0,0.6,0
699,0.27461687994999345,0.2726248617608067,0.2699322026912852,0,0.6,0
700,0.27397049037431853,0.27010490968699796,0.2708163447545647,0,0.6,0
701,0.2735212699459407,0.2718898757392791,0.2713884366778631,0,0.6,0
702,0.27352470446006,0.27263173078904523,0.27393684615437447,0,0.6,0
703,0.27174156080302586,0.2731083572382525,0.27007336823080047,0,0.6,0
704,0.27242909445600727,0.2711617587459902,0.2732087291610856,0,0.6,0
705,0.2713369189660738,0.2718933102533984,0.2713884366778631,0,0.6,0
706,0.27134035348019314,0.27410170283210034,0.27430090465101903,0,0.6,0
707,0.27322751385055427,0.27272985976388203,0.27304527432585746,0,0.6,0
708,0.2731606459634155,0.2729923547715704,0.27357278765773,0,0.6,0
709,0.2721095444586638,0.2734798455001346,0.27341676258773956,0,0.6,0
710,0.2727931529526517,0.2715292517567539,0.2732087291610856,0,0.6,0
711,0.2720684704734821,0.27482981982538923,0.27357278765773,0,0.6,0
712,0.2713369189660738,0.2733598477823342,0.2732087291610856,0,0.6,0
713,0.2713665679348995,0.27498332157888394,0.27193080954021104,0,0.6,0
714,0.2735212699459407,0.27153268627087324,0.2721165536711521,0,0.6,0
715,0.27278971843853245,0.2715292517567539,0.2713884366778631,0,0.6,0
716,0.27425282145334895,0.2733667168105728,0.27430090465101903,0,0.6,0
717,0.2747134668980828,0.27272985976388203,0.274902715635268,0,0.6,0
718,0.2738887629567045,0.27373077530721723,0.27430090465101903,0,0.6,0
719,0.27498093844663796,0.27115832423187086,0.27357278765773,0,0.6,0
720,0.27433847402995654,0.27123339289762105,0.2726737860639753,0,0.6,0
721,0.27352470446006,0.2722608032641622,0.2702962611879297,0,0.6,0
722,0.271697542948599,0.2722608032641622,0.2732087291610856,0,0.6,0
723,0.27174156080302586,0.27273336437012624,0.27341676258773956,0,0.6,0
724,0.27279658746677105,0.27263173078904523,0.27393684615437447,0,0.6,0
725,0.2738887629567045,0.2722642377782815,0.27430090465101903,0,0.6,0
726,0.2753449969432824,0.2726248617608067,0.27175249517450767,0,0.6,0
727,0.27285602558867217,0.27310485263200834,0.27230229780209314,0,0.6,0
728,0.2753449969432824,0.2707942657352264,0.27102437818121866,0,0.6,0
729,0.27461687994999345,0.2718933102533984,0.27284467066444107,0,0.6,0
730,0.2743419786362007,0.2712368975038652,0.2704448564926826,0,0.6,0
731,0.27570905543992685,0.27262829627492596,0.27175249517450767,0,0.6,0
732,0.27352470446006,0.2696952212170544,0.2721165536711521,0,0.6,0
733,0.2754494342093587,0.27085840002949474,0.27304527432585746,0,0.6,0
734,0.27569531738344977,0.27190704830987555,0.27284810517856034,0,0.6,0
735,0.27716528942650476,0.27006614874193746,0.2721165536711521,0,0.6,0
736,0.2711617587459902,0.26859961121300163,0.27284467066444107,0,0.6,0
737,0.27498332157888394,0.2719798740276294,0.2726737860639753,0,0.6,0
738,0.2718933102533984,0.2700558451995796,0.27357278765773,0,0.6,0
739,0.2711548897177516,0.26932085917805204,0.27284467066444107,0,0.6,0
740,0.2719798740276294,0.27122988829137684,0.2711878330164468,0,0.6,0
741,0.27078739670698787,0.27005241068546026,0.27357278765773,0,0.6,0
742,0.27152238272851537,0.27152238272851537,0.27393684615437447,0,0.6,0
743,0.27160488115950315,0.2727368689763704,0.27453122737338587,0,0.6,0
744,0.2722608032641622,0.2689602351955268,0.27175249517450767,0,0.6,0
745,0.2718898757392791,0.2726248617608067,0.2721165536711521,0,0.6,0
746,0.27272985976388203,0.26973692603136,0.2711878330164468,0,0.6,0
747,0.27079083122110714,0.2711548897177516,0.2721165536711521,0,0.6,0
748,0.2704233382103433,0.2718933102533984,0.2721165536711521,0,0.6,0
749,0.2711548897177516,0.2729923547715704,0.27102437818121866,0,0.6,0
750,0.26897993108261914,0.2708548954232506,0.2708163447545647,0,0.6,0
751,0.27079083122110714,0.2718933102533984,0.27102437818121866,0,0.6,0
752,0.27005241068546026,0.2711617587459902,0.2702962611879297,0,0.6,0
753,0.2689834356888633,0.2704834071613684,0.27155932127832894,0,0.6,0
754,0.2711548897177516,0.27409483380386174,0.2721165536711521,0,0.6,0
755,0.27005241068546026,0.27006271422781813,0.2702962611879297,0,0.6,0
756,0.27005241068546026,0.27263173078904523,0.27175249517450767,0,0.6,0
757,0.2701119188994863,0.2723583715019999,0.27341676258773956,0,0.6,0
758,0.2704199036962241,0.2722608032641622,0.2702962611879297,0,0.6,0
759,0.2719798740276294,0.2731083572382525,0.27007336823080047,0,0.6,0
760,0.2704199036962241,0.2715292517567539,0.26956814419464076,0,0.6,0
761,0.27152238272851537,0.27079083122110714,0.2702962611879297,0,0.6,0
762,0.2704199036962241,0.2722608032641622,0.2713884366778631,0,0.6,0
763,0.2708548954232506,0.27123339289762105,0.27193080954021104,0,0.6,0
764,0.2689533661672883,0.27152581724263464,0.2721165536711521,0,0.6,0
765,0.27005927971369886,0.2711617587459902,0.2721165536711521,0,0.6,0
766,0.2686084428207369,0.27535831444701026,0.2726737860639753,0,0.6,0
767,0.27079083122110714,0.2700558451995796,0.27175249517450767,0,0.6,0
768,0.27115832423187086,0.2704199036962241,0.2706603196845742,0,0.6,0
769,0.2704799025551243,0.2708548954232506,0.2711878330164468,0,0.6,0
770,0.27042677272446264,0.2726248617608067,0.27175249517450767,0,0.6,0
771,0.268949931653169,0.2733667168105728,0.27175249517450767,0,0.6,0
772,0.27005927971369886,0.2718933102533984,0.2692040856979963,0,0.6,0
773,0.27123339289762105,0.27272985976388203,0.27155932127832894,0,0.6,0
774,0.26785432164911627,0.27079770024934574,0.27248061216779657,0,0.6,0
775,0.26785432164911627,0.2718898757392791,0.2692040856979963,0,0.6,0
776,0.27152581724263464,0.2722642377782815,0.2732087291610856,0,0.6,0
777,0.27272985976388203,0.27048691176761264,0.2726737860639753,0,0.6,0
778,0.2733598477823342,0.27152581724263464,0.2732087291610856,0,0.6,0
779,0.26858930767064376,0.27042677272446264,0.2706603196845742,0,0.6,0
780,0.2723548668957557,0.27123339289762105,0.2726737860639753,0,0.6,0
781,0.2718898757392791,0.2707942657352264,0.2702962611879297,0,0.6,0
782,0.2729923547715704,0.27079083122110714,0.27393684615437447,0,0.6,0
783,0.26935842855698955,0.27273336437012624,0.27341676258773956,0,0.6,0
784,0.2700558451995796,0.2722608032641622,0.27284467066444107,0,0.6,0
785,0.27115832423187086,0.2744691958428641,0.27248061216779657,0,0.6,0
786,0.273118871056985,0.27311186184449665,0.27341325798149535,0,0.6,0
787,0.27263173078904523,0.2708114383058228,0.2713884366778631,0,0.6,0
788,0.2711686277742288,0.2696986557311737,0.27175249517450767,0,0.6,0
789,0.2689602351955268,0.27263173078904523,0.27175249517450767,0,0.6,0
790,0.26785845708448436,0.2742333358426313,0.2726737860639753,0,0.6,0
791,0.2704199036962241,0.27262829627492596,0.2713884366778631,0,0.6,0
792,0.2689533661672883,0.2711617587459902,0.27248061216779657,0,0.6,0
793,0.2697299168188717,0.27123339289762105,0.2711878330164468,0,0.6,0
794,0.26859617669888236,0.275197312836153,0.2713884366778631,0,0.6,0
795,0.27212685721351,0.2744657613287448,0.2699322026912852,0,0.6,0
796,0.2720684704734821,0.2733598477823342,0.27175249517450767,0,0.6,0
797,0.2724810327205459,0.27272985976388203,0.26933039170703615,0,0.6,0
798,0.27134035348019314,0.27262829627492596,0.27175249517450767,0,0.6,0
799,0.27242909445600727,0.2722608032641622,0.27175249517450767,0,0.6,0
800,0.27582793168372916,0.27535480984076605,0.2704448564926826,0,0.6,0
801,0.27607311393657136,0.2726248617608067,0.26956814419464076,0,0.6,0
802,0.2720650359593628,0.2729923547715704,0.27102437818121866,0,0.6,0
803,0.27359900211243643,0.2704834071613684,0.2711878330164468,0,0.6,0
804,0.2738887629567045,0.27042677272446264,0.2713884366778631,0,0.6,0
805,0.2738887629567045,0.27152581724263464,0.27175249517450767,0,0.6,0
806,0.27498093844663796,0.27226767229240073,0.2706603196845742,0,0.6,0
807,0.27359900211243643,0.27273336437012624,0.27155932127832894,0,0.6,0
808,0.27352470446006,0.2707942657352264,0.26956814419464076,0,0.6,0
809,0.2706019329445463,0.27299578928568974,0.2713884366778631,0,0.6,0
810,0.2713665679348995,0.2734798455001346,0.27341676258773956,0,0.6,0
811,0.27242909445600727,0.272999223799809,0.27357278765773,0,0.6,0
812,0.27133348445195454,0.2711548897177516,0.27248061216779657,0,0.6,0
813,0.27322751385055427,0.2746083287107577,0.27007336823080047,0,0.6,0
814,0.27096599144119077,0.275197312836153,0.2713884366778631,0,0.6,0
815,0.2698738159512573,0.2722608032641622,0.2732087291610856,0,0.6,0
816,0.27134035348019314,0.2722573687500429,0.27248061216779657,0,0.6,0
817,0.27322751385055427,0.2719798740276294,0.27230229780209314,0,0.6,0
818,0.27425282145334895,0.27262829627492596,0.27175249517450767,0,0.6,0
819,0.2738887629567045,0.27299578928568974,0.27284467066444107,0,0.6,0
820,0.2747134668980828,0.2723548668957557,0.27193080954021104,0,0.6,0
821,0.2720684704734821,0.2722608032641622,0.27393684615437447,0,0.6,0
822,0.27352470446006,0.27079770024934574,0.2750290216443079,0,0.6,0
823,0.27248453732679007,0.2723548668957557,0.27193080954021104,0,0.6,0
824,0.27352470446006,0.27115832423187086,0.27393684615437447,0,0.6,0
825,0.2709694259553101,0.27409483380386174,0.2732087291610856,0,0.6,0
826,0.27211304906490796,0.27161539497823567,0.2711878330164468,0,0.6,0
827,0.2731572114492962,0.27079083122110714,0.27393684615437447,0,0.6,0
828,0.27498093844663796,0.27152238272851537,0.2721165536711521,0,0.6,0
829,0.27279658746677105,0.27409483380386174,0.27102437818121866,0,0.6,0
830,0.27397049037431853,0.27311186184449665,0.27378825084962166,0,0.6,0
831,0.2731606459634155,0.27115832423187086,0.27175249517450767,0,0.6,0
832,0.2724325289701266,0.2722573687500429,0.27357278765773,0,0.6,0
833,0.27397049037431853,0.2723548668957557,0.2704448564926826,0,0.6,0
834,0.27461687994999345,0.27079083122110714,0.27175249517450767,0,0.6,0
835,0.27278971843853245,0.2711617587459902,0.27175249517450767,0,0.6,0
836,0.27607311393657136,0.2722608032641622,0.2721165536711521,0,0.6,0
837,0.2743419786362007,0.27273336437012624,0.274902715635268,0,0.6,0
838,0.27789340641979376,0.27153268627087324,0.27357278765773,0,0.6,0
839,0.2753449969432824,0.27079083122110714,0.2721165536711521,0,0.6,0
840,0.2732240092443101,0.2708619046357389,0.2704448564926826,0,0.6,0
841,0.27279658746677105,0.2718933102533984,0.27102437818121866,0,0.6,0
842,0.27352470446006,0.2704336417527012,0.27284467066444107,0,0.6,0
843,0.27322751385055427,0.27198688324011777,0.27378825084962166,0,0.6,0
844,0.2731606459634155,0.2729923547715704,0.27248061216779657,0,0.6,0
845,0.27607311393657136,0.2693311627204099,0.27284467066444107,0,0.6,0
846,0.27352470446006,0.2722608032641622,0.2721165536711521,0,0.6,0
847,0.27545644342184705,0.2719833786338736,0.2752742038971502,0,0.6,0
848,0.27570905543992685,0.2718933102533984,0.27284467066444107,0,0.6,0
849,0.27570905543992685,0.2696917867029351,0.27175249517450767,0,0.6,0
850,0.27545644342184705,0.2704834071613684,0.27378825084962166,0,0.6,0
851,0.27570905543992685,0.2704233382103433,0.27284467066444107,0,0.6,0
852,0.27643717243321586,0.2700558451995796,0.27284467066444107,0,0.6,0
853,0.27359900211243643,0.2708619046357389,0.27230229780209314,0,0.6,0
854,0.2751114499831709,0.27176623323098476,0.27102437818121866,0,0.6,0
855,0.2729923547715704,0.2746134454358742,0.27248061216779657,0,0.6,0
856,0.27310485263200834,0.27284551176993965,0.2708163447545647,0,0.6,0
857,0.27262829627492596,0.27242909445600727,0.27248061216779657,0,0.6,0
858,0.26968491767469654,0.2720650359593628,0.2713884366778631,0,0.6,0
859,0.27152238272851537,0.2731537769351769,0.2713884366778631,0,0.6,0
860,0.2704834071613684,0.2747064576855945,0.27230229780209314,0,0.6,0
861,0.2700558451995796,0.2731606459634155,0.27175249517450767,0,0.6,0
862,0.2700558451995796,0.27497750393251863,0.2699322026912852,0,0.6,0
863,0.2734798455001346,0.2750779459474766,0.2711878330164468,0,0.6,0
864,0.2722573687500429,0.2731606459634155,0.27284467066444107,0,0.6,0
865,0.27042677272446264,0.27352470446006,0.27248061216779657,0,0.6,0
866,0.27160488115950315,0.27545644342184705,0.2708163447545647,0,0.6,0
867,0.27079083122110714,0.2757056209258076,0.2732087291610856,0,0.6,0
868,0.2704199036962241,0.2746134454358742,0.27102437818121866,0,0.6,0
869,0.268949931653169,0.2720650359593628,0.27175249517450767,0,0.6,0
870,0.2704834071613684,0.2758209224712408,0.27155932127832894,0,0.6,0
871,0.2700558451995796,0.27498093844663796,0.27102437818121866,0,0.6,0
872,0.26931742466393277,0.2738818939284659,0.2721165536711521,0,0.6,0
873,0.2712368975038652,0.27359199289994807,0.2726737860639753,0,0.6,0
874,0.27115832423187086,0.27351783543182145,0.26884002720135175,0,0.6,0
875,0.2711548897177516,0.2767943619016217,0.2706603196845742,0,0.6,0
876,0.27005241068546026,0.2735144009177021,0.27248061216779657,0,0.6,0
877,0.2723583715019999,0.2743419786362007,0.2704448564926826,0,0.6,0
878,0.27078739670698787,0.27425282145334895,0.27102437818121866,0,0.6,0
879,0.2696883521888158,0.2727931529526517,0.27175249517450767,0,0.6,0
880,0.27122988829137684,0.2735954975061922,0.2711878330164468,0,0.6,0
881,0.2718898757392791,0.27497406941839936,0.2706603196845742,0,0.6,0
882,0.27079083122110714,0.272425659941888,0.2706603196845742,0,0.6,0
883,0.27122988829137684,0.27545644342184705,0.27230229780209314,0,0.6,0
884,0.27005241068546026,0.2724187909136494,0.27248061216779657,0,0.6,0
885,0.2744623268146255,0.2738853284425852,0.2721165536711521,0,0.6,0
886,0.2704834071613684,0.27508145055372074,0.2708163447545647,0,0.6,0
887,0.2733598477823342,0.2753449969432824,0.27284467066444107,0,0.6,0
888,0.27152238272851537,0.2760696794224521,0.2702962611879297,0,0.6,0
889,0.27085840002949474,0.2743419786362007,0.27304527432585746,0,0.6,0
890,0.2696883521888158,0.27570905543992685,0.27393684615437447,0,0.6,0
891,0.2700558451995796,0.2742493869392297,0.2721165536711521,0,0.6,0
892,0.27115832423187086,0.27607311393657136,0.2732087291610856,0,0.6,0
893,0.27010490968699796,0.27359199289994807,0.27341676258773956,0,0.6,0
894,0.26968491767469654,0.2731572114492962,0.27284467066444107,0,0.6,0
895,0.27079083122110714,0.2731537769351769,0.2732087291610856,0,0.6,0
896,0.27078739670698787,0.27351783543182145,0.27175249517450767,0,0.6,0
897,0.27422983123638717,0.27508145055372074,0.27378825084962166,0,0.6,0
898,0.2722573687500429,0.2738887629567045,0.2732087291610856,0,0.6,0
899,0.27519387832203374,0.2753415624291631,0.2721165536711521,0,0.6,0
900,0.2701084142932421,0.2735954975061922,0.26895890344515405,0,0.6,0
901,0.2722573687500429,0.2746134454358742,0.27102437818121866,0,0.6,0
902,0.2722573687500429,0.27497750393251863,0.27175249517450767,0,0.6,0
903,0.2723548668957557,0.2735954975061922,0.2726737860639753,0,0.6,0
904,0.27078739670698787,0.2757056209258076,0.27430090465101903,0,0.6,0
905,0.2729923547715704,0.2753415624291631,0.2750290216443079,0,0.6,0
906,0.2734798455001346,0.2735954975061922,0.27193080954021104,0,0.6,0
907,0.2718898757392791,0.2738853284425852,0.2721165536711521,0,0.6,0
908,0.2722573687500429,0.27497406941839936,0.2721165536711521,0,0.6,0
909,0.27152238272851537,0.2746100109217549,0.2732087291610856,0,0.6,0
910,0.2719798740276294,0.27396348116183017,0.27378825084962166,0,0.6,0
911,0.2711548897177516,0.2731572114492962,0.27393684615437447,0,0.6,0
912,0.2726248617608067,0.27497406941839936,0.27284467066444107,0,0.6,0
913,0.2708548954232506,0.2739669857680744,0.27378825084962166,0,0.6,0
914,0.27152238272851537,0.27229171389123574,0.2721234226993907,0,0.6,0
915,0.27299578928568974,0.2729923547715704,0.2709144737294015,0,0.6,0
916,0.2704199036962241,0.2733598477823342,0.2692659069521435,0,0.6,0
917,0.2734798455001346,0.2701084142932421,0.2707041973547512,0,0.6,0
918,0.2744623268146255,0.27079083122110714,0.2742116072839175,0,0.6,0
919,0.27078739670698787,0.27042677272446264,0.27256304050665947,0,0.6,0
920,0.27272985976388203,0.2719833786338736,0.27154530285335227,0,0.6,0
921,0.2729923547715704,0.27079083122110714,0.2733873238952885,0,0.6,0
922,0.2722573687500429,0.27005927971369886,0.27256304050665947,0,0.6,0
923,0.27272985976388203,0.27273336437012624,0.2673397753603471,0,0.6,0
924,0.2718898757392791,0.27262829627492596,0.27215089881234494,0,0.6,0
925,0.2722573687500429,0.2718898757392791,0.2700901903407725,0,0.6,0
926,0.27310485263200834,0.27048691176761264,0.27028364460545073,0,0.6,0
927,0.27409826831798106,0.2726248617608067,0.2733873238952885,0,0.6,0
928,0.2733598477823342,0.27115832423187086,0.27215089881234494,0,0.6,0
929,0.2704799025551243,0.27272985976388203,0.27238640835195327,0,0.6,0
930,0.2711548897177516,0.2707942657352264,0.27173875711803047,0,0.6,0
931,0.2726248617608067,0.2707942657352264,0.27173875711803047,0,0.6,0
932,0.2722573687500429,0.2722608032641622,0.2700901903407725,0,0.6,0
933,0.27085840002949474,0.27048691176761264,0.27112475010405174,0,0.6,0
934,0.2718898757392791,0.2711548897177516,0.27215089881234494,0,0.6,0
935,0.2718933102533984,0.27079083122110714,0.2692659069521435,0,0.6,0
936,0.2722573687500429,0.27299578928568974,0.26885376525782895,0,0.6,0
937,0.2731083572382525,0.26974043063760417,0.27028364460545073,0,0.6,0
938,0.273727340793098,0.27115832423187086,0.27215089881234494,0,0.6,0
939,0.27263173078904523,0.2711617587459902,0.27256304050665947,0,0.6,0
940,0.2738548383682609,0.2704834071613684,0.2707041973547512,0,0.6,0
941,0.2711548897177516,0.2704302072385819,0.272975182200974,0,0.6,0
942,0.2722573687500429,0.27373077530721723,0.2700901903407725,0,0.6,0
943,0.2704834071613684,0.2704904163738568,0.2698630918561502,0,0.6,0
944,0.273727340793098,0.27190017928163696,0.27173875711803047,0,0.6,0
945,0.2722573687500429,0.27042677272446264,0.2700901903407725,0,0.6,0
946,0.27160488115950315,0.2727368689763704,0.27028364460545073,0,0.6,0
947,0.2729923547715704,0.2704336417527012,0.27215089881234494,0,0.6,0
948,0.2726248617608067,0.2718933102533984,0.26885376525782895,0,0.6,0
949,0.27160488115950315,0.27272985976388203,0.2707041973547512,0,0.6,0
950,0.26968491767469654,0.2722608032641622,0.2692659069521435,0,0.6,0
951,0.2733598477823342,0.2696883521888158,0.2742116072839175,0,0.6,0
952,0.273727340793098,0.2718898757392791,0.26967804864645795,0,0.6,0
953,0.27122988829137684,0.27310485263200834,0.27112475010405174,0,0.6,0
954,0.2733598477823342,0.27336328229645346,0.2733873238952885,0,0.6,0
955,0.2711548897177516,0.2722608032641622,0.27256304050665947,0,0.6,0
956,0.2718898757392791,0.272999223799809,0.27132661542371594,0,0.6,0
957,0.2734798455001346,0.2708654092419831,0.27028364460545073,0,0.6,0
958,0.27482981982538923,0.2726248617608067,0.27173875711803047,0,0.6,0
959,0.2722573687500429,0.2682286836881186,0.26885376525782895,0,0.6,0
960,0.27272985976388203,0.27160488115950315,0.2698630918561502,0,0.6,0
961,0.2726248617608067,0.2704302072385819,0.2709144737294015,0,0.6,0
962,0.27078739670698787,0.2718933102533984,0.272975182200974,0,0.6,0
963,0.2723548668957557,0.27123339289762105,0.27196585560265274,0,0.6,0
964,0.2718898757392791,0.2722608032641622,0.27132661542371594,0,0.6,0
965,0.2722573687500429,0.27042677272446264,0.2700901903407725,0,0.6,0
966,0.2722573687500429,0.27336328229645346,0.2700901903407725,0,0.6,0
967,0.2738548383682609,0.27348335010637875,0.2686014336082486,0,0.6,0
968,0.27152238272851537,0.27409826831798106,0.27215089881234494,0,0.6,0
969,0.27409483380386174,0.27079083122110714,0.2700901903407725,0,0.6,0
970,0.27460482410451353,0.26973692603136,0.2694425391068496,0,0.6,0
971,0.2726248617608067,0.2700558451995796,0.2684416235635145,0,0.6,0
972,0.27629979186844433,0.2696883521888158,0.2742116072839175,0,0.6,0
973,0.27297868680721815,0.26973692603136,0.27090045530442475,0,0.6,0
974,0.27112741360479725,0.27006271422781813,0.27248061216779657,0,0.6,0
975,0.2736998646801437,0.2704370762668205,0.2746649631476635,0,0.6,0
976,0.2734973685313554,0.27048691176761264,0.2711878330164468,0,0.6,0
977,0.27112741360479725,0.27116519326010946,0.27284467066444107,0,0.6,0
978,0.27112741360479725,0.2689602351955268,0.27248061216779657,0,0.6,0
979,0.2678724755094611,0.2734798455001346,0.2711878330164468,0,0.6,0
980,0.27112741360479725,0.2696952212170544,0.27284467066444107,0,0.6,0
981,0.27112741360479725,0.2696986557311737,0.27430090465101903,0,0.6,0
982,0.27002493457250604,0.2696986557311737,0.2732087291610856,0,0.6,0
983,0.2678724755094611,0.27048691176761264,0.2726737860639753,0,0.6,0
984,0.27186239962632486,0.27006271422781813,0.2732087291610856,0,0.6,0
985,0.2674524834971596,0.2685858731565245,0.2706603196845742,0,0.6,0
986,0.2712509159288419,0.26861545203322534,0.27155932127832894,0,0.6,0
987,0.27112741360479725,0.26932772820629064,0.27175249517450767,0,0.6,0
988,0.26929338306509776,0.2707942657352264,0.2713884366778631,0,0.6,0
989,0.271622404190724,0.26936894237572206,0.2711878330164468,0,0.6,0
990,0.27112741360479725,0.2715292517567539,0.2692040856979963,0,0.6,0
991,0.27039242758326976,0.27115832423187086,0.2732087291610856,0,0.6,0
992,0.2707633551081528,0.2682286836881186,0.27357278765773,0,0.6,0
993,0.26862246124571365,0.2716083857657473,0.27304527432585746,0,0.6,0
994,0.2696574415617422,0.2722608032641622,0.27393684615437447,0,0.6,0
995,0.26928994855097843,0.27115832423187086,0.27102437818121866,0,0.6,0
996,0.2693724469819662,0.27085840002949474,0.27378825084962166,0,0.6,0
997,0.27259738564785235,0.27152581724263464,0.27284467066444107,0,0.6,0
998,0.2696574415617422,0.27115832423187086,0.27393684615437447,0,0.6,0
999,0.2708724184544714,0.27160488115950315,0.27341676258773956,0,0.6,0
1000,0.27002493457250604,0.2722608032641622,0.27430090465101903,0,0.6,0
1001,0.27002493457250604,0.2704199036962241,0.2721165536711521,0,0.6,0
1002,0.26928994855097843,0.2696883521888158,0.2713884366778631,0,0.6,0
1003,0.26899745411383996,0.2716083857657473,0.27007336823080047,0,0.6,0
1004,0.2696574415617422,0.2696952212170544,0.2706603196845742,0,0.6,0
1005,0.26855496252945094,0.27078739670698787,0.2702962611879297,0,0.6,0
1006,0.26974743985009253,0.2693724469819662,0.2726737860639753,0,0.6,0
1007,0.26928994855097843,0.27115832423187086,0.2750290216443079,0,0.6,0
1008,0.2714949066155611,0.2711548897177516,0.2746649631476635,0,0.6,0
1009,0.27199739705885034,0.27048691176761264,0.27155932127832894,0,0.6,0
1010,0.27002493457250604,0.27152238272851537,0.27175249517450767,0,0.6,0
1011,0.2696574415617422,0.27152581724263464,0.27248061216779657,0,0.6,0
1012,0.27039586209738903,0.27152581724263464,0.27430090465101903,0,0.6,0
1013,0.2690009587200841,0.2723548668957557,0.274902715635268,0,0.6,0
1014,0.2707633551081528,0.27006271422781813,0.27284467066444107,0,0.6,0
1015,0.27002493457250604,0.2744691958428641,0.27284467066444107,0,0.6,0
1016,0.2727543920075912,0.27310485263200834,0.2730487789321016,0,0.6,0
1017,0.26928994855097843,0.2711686277742288,0.2721165536711521,0,0.6,0
1018,0.26928994855097843,0.2718933102533984,0.27539308014095243,0,0.6,0
1019,0.271622404190724,0.27535480984076605,0.27378825084962166,0,0.6,0
1020,0.27333580618349923,0.2722608032641622,0.27175249517450767,0,0.6,0
1021,0.2733323716693799,0.2722642377782815,0.27430090465101903,0,0.6,0
1022,0.27075992059403353,0.2718898757392791,0.2732087291610856,0,0.6,0
1023,0.2708724184544714,0.27124040211010936,0.2708163447545647,0,0.6,0
1024,0.2678199765079234,0.27263173078904523,0.2732087291610856,0,0.6,0
1025,0.26819090403280643,0.2715292517567539,0.2732087291610856,0,0.6,0
1026,0.2708724184544714,0.2723583715019999,0.27193080954021104,0,0.6,0
1027,0.2707633551081528,0.2704233382103433,0.27393684615437447,0,0.6,0
1028,0.2685583970435702,0.2744623268146255,0.27284467066444107,0,0.6,0
1029,0.2723723899269766,0.27085840002949474,0.2726737860639753,0,0.6,0
1030,0.27039242758326976,0.27152581724263464,0.27539308014095243,0,0.6,0
1031,0.26782341102204266,0.27152238272851537,0.2713884366778631,0,0.6,0
1032,0.26862246124571365,0.2738548383682609,0.27155932127832894,0,0.6,0
1033,0.26993563720540453,0.27115832423187086,0.27357278765773,0,0.6,0
1034,0.2704233382103433,0.2718933102533984,0.27357278765773,0,0.6,0
1035,0.2718898757392791,0.27079083122110714,0.27175249517450767,0,0.6,0
1036,0.27160488115950315,0.27085840002949474,0.2711878330164468,0,0.6,0
1037,0.2737239062789787,0.27005927971369886,0.27430090465101903,0,0.6,0
1038,0.27629979186844433,0.2722573687500429,0.2732087291610856,0,0.6,0
1039,0.27422983123638717,0.26898694029510745,0.27378825084962166,0,0.6,0
1040,0.2744623268146255,0.2722608032641622,0.27284467066444107,0,0.6,0
1041,0.2733598477823342,0.270801134763465,0.27102437818121866,0,0.6,0
1042,0.2726248617608067,0.2722608032641622,0.27284467066444107,0,0.6,0
1043,0.27348335010637875,0.2719833786338736,0.2711878330164468,0,0.6,0
1044,0.2729923547715704,0.273727340793098,0.2706603196845742,0,0.6,0
1045,0.2729923547715704,0.2729923547715704,0.27357278765773,0,0.6,0
1046,0.27310485263200834,0.2701119188994863,0.2726737860639753,0,0.6,0
1047,0.27409483380386174,0.27299578928568974,0.2746649631476635,0,0.6,0
1048,0.2718933102533984,0.2704302072385819,0.27539308014095243,0,0.6,0
1049,0.2719833786338736,0.2708548954232506,0.27230229780209314,0,0.6,0
1050,0.2729923547715704,0.27299578928568974,0.27284467066444107,0,0.6,0
1051,0.2711548897177516,0.2718898757392791,0.27102437818121866,0,0.6,0
1052,0.2726248617608067,0.2707942657352264,0.27248061216779657,0,0.6,0
1053,0.2723548668957557,0.27310485263200834,0.27415973911150376,0,0.6,0
1054,0.27078739670698787,0.27078739670698787,0.27393684615437447,0,0.6,0
1055,0.2729923547715704,0.2722642377782815,0.2750290216443079,0,0.6,0
1056,0.2708548954232506,0.2719833786338736,0.27378825084962166,0,0.6,0
1057,0.2729923547715704,0.2722608032641622,0.27284467066444107,0,0.6,0
1058,0.2744623268146255,0.27263173078904523,0.2699322026912852,0,0.6,0
1059,0.2719798740276294,0.27048691176761264,0.27415973911150376,0,0.6,0
1060,0.2726248617608067,0.27152581724263464,0.27175249517450767,0,0.6,0
1061,0.273727340793098,0.27152581724263464,0.2706603196845742,0,0.6,0
1062,0.2729923547715704,0.27042677272446264,0.27284467066444107,0,0.6,0
1063,0.27272985976388203,0.27272985976388203,0.2708163447545647,0,0.6,0
1064,0.27409483380386174,0.2726248617608067,0.2732087291610856,0,0.6,0
1065,0.2718898757392791,0.2722573687500429,0.2750290216443079,0,0.6,0
1066,0.2697299168188717,0.27273336437012624,0.27453122737338587,0,0.6,0
1067,0.2733598477823342,0.2722642377782815,0.2713884366778631,0,0.6,0
1068,0.2704199036962241,0.2726248617608067,0.27102437818121866,0,0.6,0
1069,0.27122988829137684,0.2704834071613684,0.27341676258773956,0,0.6,0
1070,0.26822181465988004,0.2715361207849925,0.27248061216779657,0,0.6,0
1071,0.2718933102533984,0.27078739670698787,0.2713884366778631,0,0.6,0
1072,0.2722608032641622,0.27262829627492596,0.27102437818121866,0,0.6,0
1073,0.27160488115950315,0.2731083572382525,0.27155932127832894,0,0.6,0
1074,0.2741051373462196,0.2726420343314031,0.27138500216374384,0,0.6,0
1075,0.27152581724263464,0.2715292517567539,0.27430090465101903,0,0.6,0
1076,0.2727368689763704,0.2727368689763704,0.27007336823080047,0,0.6,0
1077,0.272999223799809,0.2707942657352264,0.27175249517450767,0,0.6,0
1078,0.27482981982538923,0.27115832423187086,0.27357278765773,0,0.6,0
1079,0.27272985976388203,0.2686189566394695,0.27193080954021104,0,0.6,0
1080,0.273727340793098,0.27115832423187086,0.2721165536711521,0,0.6,0
1081,0.2729923547715704,0.26859617669888236,0.2702962611879297,0,0.6,0
1082,0.27272985976388203,0.27348335010637875,0.2726737860639753,0,0.6,0
1083,0.27409483380386174,0.2707942657352264,0.27357278765773,0,0.6,0
1084,0.26931742466393277,0.27079083122110714,0.27284467066444107,0,0.6,0
1085,0.2696883521888158,0.2722573687500429,0.27248061216779657,0,0.6,0
1086,0.2704834071613684,0.27123339289762105,0.27341676258773956,0,0.6,0
1087,0.2711548897177516,0.2718898757392791,0.27357278765773,0,0.6,0
1088,0.27078739670698787,0.2718933102533984,0.2732087291610856,0,0.6,0
1089,0.2693549239507454,0.27161189037199146,0.2726737860639753,0,0.6,0
1090,0.2729923547715704,0.2715292517567539,0.2713884366778631,0,0.6,0
1091,0.27262829627492596,0.2704302072385819,0.27393684615437447,0,0.6,0
1092,0.2733598477823342,0.27262829627492596,0.27284467066444107,0,0.6,0
1093,0.27348335010637875,0.2723548668957557,0.27193080954021104,0,0.6,0
1094,0.27079083122110714,0.2715292517567539,0.2750290216443079,0,0.6,0
1095,0.2722573687500429,0.26895680068140754,0.27284467066444107,0,0.6,0
1096,0.27272985976388203,0.2704904163738568,0.2708163447545647,0,0.6,0
1097,0.27593229885768056,0.2726248617608067,0.2746649631476635,0,0.6,0
1098,0.2722573687500429,0.27115832423187086,0.2702962611879297,0,0.6,0
1099,0.27160488115950315,0.2701119188994863,0.2708163447545647,0,0.6,0
1100,0.27409483380386174,0.26859617669888236,0.27357278765773,0,0.6,0
1101,0.2722573687500429,0.27152238272851537,0.2732087291610856,0,0.6,0
1102,0.2719798740276294,0.2689834356888633,0.27230229780209314,0,0.6,0
1103,0.2744623268146255,0.27079083122110714,0.2721165536711521,0,0.6,0
1104,0.27152238272851537,0.27079770024934574,0.27284467066444107,0,0.6,0
1105,0.27152238272851537,0.2711686277742288,0.27175249517450767,0,0.6,0
1106,0.2723548668957557,0.27048691176761264,0.27230229780209314,0,0.6,0
1107,0.2722573687500429,0.27005927971369886,0.27284467066444107,0,0.6,0
1108,0.2718898757392791,0.2704336417527012,0.27284467066444107,0,0.6,0
1109,0.2719798740276294,0.2701154235057305,0.27230229780209314,0,0.6,0
1110,0.2718898757392791,0.27153268627087324,0.27248061216779657,0,0.6,0
1111,0.2726248617608067,0.272999223799809,0.2702962611879297,0,0.6,0
1112,0.2734798455001346,0.2716083857657473,0.27378825084962166,0,0.6,0
1113,0.27482981982538923,0.26932772820629064,0.27393684615437447,0,0.6,0
1114,0.2722573687500429,0.2707942657352264,0.2713884366778631,0,0.6,0
1115,0.2755682403610361,0.27042677272446264,0.27539308014095243,0,0.6,0
1116,0.27160488115950315,0.2708548954232506,0.27378825084962166,0,0.6,0
1117,0.2733598477823342,0.2719036137957563,0.27393684615437447,0,0.6,0
1118,0.2744623268146255,0.26896366970964614,0.27248061216779657,0,0.6,0
1119,0.27385834297450506,0.2701119188994863,0.2726737860639753,0,0.6,0
1120,0.27556480584691684,0.27005927971369886,0.27284467066444107,0,0.6,0
1121,0.2729923547715704,0.27042677272446264,0.2732087291610856,0,0.6,0
1122,0.27160488115950315,0.2701119188994863,0.27341676258773956,0,0.6,0
1123,0.2733598477823342,0.27042677272446264,0.27357278765773,0,0.6,0
1124,0.2726248617608067,0.2700558451995796,0.27248061216779657,0,0.6,0
1125,0.27160488115950315,0.27048691176761264,0.2726737860639753,0,0.6,0
1126,0.2722573687500429,0.26932772820629064,0.2750290216443079,0,0.6,0
1127,0.273727340793098,0.27078739670698787,0.27357278765773,0,0.6,0
1128,0.27078739670698787,0.27005927971369886,0.27430090465101903,0,0.6,0
1129,0.27160488115950315,0.27048691176761264,0.27193080954021104,0,0.6,0
1130,0.27409483380386174,0.2707942657352264,0.2721165536711521,0,0.6,0
1131,0.2722573687500429,0.27042677272446264,0.2713884366778631,0,0.6,0
1132,0.2723548668957557,0.27535831444701026,0.27378825084962166,0,0.6,0
1133,0.27482981982538923,0.27115832423187086,0.2702962611879297,0,0.6,0
1134,0.27409826831798106,0.2700558451995796,0.27102437818121866,0,0.6,0
1135,0.2726248617608067,0.27152581724263464,0.27248061216779657,0,0.6,0
1136,0.2731083572382525,0.2720009016650945,0.2704448564926826,0,0.6,0
1137,0.2766707193933274,0.2700867558266532,0.26956127516640216,0,0.6,0
1138,0.27337015132469206,0.2722642377782815,0.2713884366778631,0,0.6,0
1139,0.27160488115950315,0.27085840002949474,0.27341676258773956,0,0.6,0
1140,0.2722573687500429,0.27005927971369886,0.2746649631476635,0,0.6,0
0,0.37128353722637725,0.7965188119681188,0.6075199742451941,0,5.4,1
1,0.5827969787129403,0.6665609182976395,0.6565630704390915,0,5.4,1
2,0.6311860719669458,0.6856446628592509,0.7605812632714403,0,5.4,1
3,0.6532886675001569,0.6565213880228781,1.0,0,5.4,1
4,0.6416815778194497,0.627869037486571,0.0,0,5.4,1
5,0.6545595461789365,0.6480241862417814,0.6558345377336994,0,5.4,1
6,0.654261679045237,0.6532933340325223,0.6550288095098552,0,5.4,1
7,0.6559579240131926,0.651433760431776,0.6564638077591146,0,5.4,1
8,0.6504672345757462,0.6529596374215084,0.6535025370512784,0,5.4,1
9,0.6544000140470534,0.6510967418824681,0.6520231671976627,0,5.4,1
10,0.6530994752049339,0.6541976130924233,0.6516517428588807,0,5.4,1
11,0.6518261446193182,0.6534190931250827,0.6530418158474016,0,5.4,1
12,0.6531858456005792,0.6526347202188431,0.6527786708782518,0,5.4,1
13,0.6543580152557644,0.6519519828056475,0.6540618881849808,0,5.4,1
14,0.6518806402260944,0.6548695146592788,0.6517339212847739,0,5.4,1
15,0.6533092318800724,0.6521041592170224,0.6517504518824753,0,5.4,1
16,0.6530376238776496,0.6527986816017849,0.6542994067730051,0,5.4,1
17,0.6524948824354174,0.6520260145733434,0.6526511717227754,0,5.4,1
18,0.6516270656029821,0.6534161666556332,0.6520013373174447,0,5.4,1
19,0.6552090642091917,0.6510506302151959,0.6546557242019261,0,5.4,1
20,0.651701097370678,0.6542922092400347,0.651935531301715,0,5.4,1
21,0.6538802097978039,0.6539011696465641,0.6535951558546672,0,5.4,1
22,0.6521864167366844,0.6515777110911849,0.6526018172109782,0,5.4,1
23,0.6527651458437688,0.6538340981305318,0.6537963704027637,0,5.4,1
24,0.6533174576320386,0.651236342384587,0.6530912494529678,0,5.4,1
25,0.6520063993186547,0.6541946075292049,0.6529621684221134,0,5.4,1
26,0.6548762376296358,0.6540084207972003,0.6500600598534187,0,5.4,1
27,0.6536999550984675,0.6519938234093987,0.6548485548105186,0,5.4,1
28,0.6518944025418839,0.6525442369472148,0.6527704451262856,0,5.4,1
29,0.6519848858135123,0.6538315671299268,0.652708751986539,0,5.4,1
30,0.6523543328080716,0.6524214043241039,0.6530250479683936,0,5.4,1
31,0.6528197996380828,0.6519108540458164,0.6514913406955396,0,5.4,1
32,0.6525303955376561,0.6549365861753109,0.6537167229774755,0,5.4,1
33,0.6536259233307715,0.6508990865539723,0.6536670520906026,0,5.4,1
34,0.6521535137288197,0.6546459165745818,0.6518368222781205,0,5.4,1
35,0.6545090052606057,0.6524758999308801,0.6530921194844257,0,5.4,1
36,0.6508744092980737,0.6524660923035357,0.6524537536755863,0,5.4,1
37,0.6549910817820871,0.6535406602478909,0.6516878096175018,0,5.4,1
38,0.6515406952073368,0.6516928716187118,0.6530665721970692,0,5.4,1
39,0.6523961734118229,0.6540207594251497,0.6545225302950887,0,5.4,1
40,0.6543622863192853,0.6512476527935406,0.6511051258219722,0,5.4,1
41,0.6535683430670081,0.6542963221160178,0.6536752778425688,0,5.4,1
42,0.6527064582672406,0.6532220705467381,0.653549044187395,0,5.4,1
43,0.6515242437034044,0.6520794819611238,0.6513720672920295,0,5.4,1
44,0.6526813064487286,0.6518848321958464,0.6539179375255721,0,5.4,1
45,0.6542922092400347,0.6537780997421464,0.6527334292424376,0,5.4,1
46,0.6518861767899177,0.6535560044390587,0.6525853657070457,0,5.4,1
47,0.6512811885515567,0.6520315511371667,0.6528238334202969,0,5.4,1
48,0.654925592141433,0.6528362511420153,0.6530994752049339,0,5.4,1
49,0.652086046743943,0.6523836765963358,0.6526729225092246,0,5.4,1
50,0.6518532737820529,0.6539631791613862,0.6527827837542348,0,5.4,1
51,0.6532262625164902,0.653188534788722,0.6530711596356656,0,5.4,1
52,0.653761648238214,0.6523015772642115,0.6526347202188431,0,5.4,1
53,0.6514214218038268,0.65329278037614,0.6514460990597254,0,5.4,1
54,0.6551839123906796,0.6527735297832729,0.6535951558546672,0,5.4,1
55,0.6516065012230665,0.6528856056538125,0.6527827837542348,0,5.4,1
56,0.6532262625164902,0.6537167229774755,0.6533436376695465,0,5.4,1
57,0.652593591459012,0.6514584376876748,0.654575997682869,0,5.4,1
58,0.6535724559429912,0.6539878564172849,0.6540536624330145,0,5.4,1
59,0.6530795435751697,0.6515494746156854,0.6513231082490768,0,5.4,1
60,0.6524043991637891,0.6547980929859567,0.6527416549944037,0,5.4,1
61,0.6532891420627703,0.6516752337082458,0.652815449480793,0,5.4,1
62,0.6532105228564778,0.6527827837542348,0.6525812528310626,0,5.4,1
63,0.6528615611480652,0.6542784469242451,0.6533813653973145,0,5.4,1
64,0.6520959334650562,0.6517915806423064,0.6514502119357085,0,5.4,1
65,0.6520734708346869,0.6524507481123679,0.6546934519296943,0,5.4,1
66,0.6533133447560555,0.6534860855473459,0.6527581064983362,0,5.4,1
67,0.6516969844946949,0.6524290764196877,0.6513309385321985,0,5.4,1
68,0.6544125899563095,0.6527777217530248,0.6533478296392985,0,5.4,1
69,0.6518820639139347,0.6517627905104245,0.6525318983192654,0,5.4,1
70,0.6532891420627703,0.6530040881196335,0.6511386615799882,0,5.4,1
71,0.6530542335691198,0.6536876164705182,0.6568545309775097,0,5.4,1
72,0.6517463390064921,0.6520260145733434,0.6524743180555019,0,5.4,1
73,0.6533520216090505,0.6540981922249085,0.6511386615799882,0,5.4,1
74,0.6527457678703869,0.6518285965261542,0.6527334292424376,0,5.4,1
75,0.6533059099417783,0.6531298472121938,0.6521531182599751,0,5.4,1
76,0.6526552845987585,0.6529185086616773,0.653991969293268,0,5.4,1
77,0.6535071244898749,0.6526854984184807,0.6533436376695465,0,5.4,1
78,0.6529802018014239,0.6533626992678527,0.6521452879768534,0,5.4,1
79,0.6508494156670994,0.652471707961128,0.6543035987427571,0,5.4,1
80,0.6538151156259944,0.6532269743604103,0.6530089919333056,0,5.4,1
81,0.652054804705225,0.652708751986539,0.6516558557348638,0,5.4,1
82,0.6544167819260615,0.6526184269024484,0.652471707961128,0,5.4,1
83,0.6504795732036955,0.6524537536755863,0.6550201882890444,0,5.4,1
84,0.6531382311516979,0.6534023252460747,0.6494996014069516,0,5.4,1
85,0.6521658523567689,0.6538027769980451,0.6550983329327235,0,5.4,1
86,0.6554520402672706,0.6513597286640802,0.652906170033728,0,5.4,1
87,0.6504972902079305,0.6536957631287155,0.6521321584112151,0,5.4,1
88,0.6536012460748729,0.6521781909847183,0.6528239125140659,0,5.4,1
89,0.6536915711589634,0.6530292399381455,0.652840601299305,0,5.4,1
90,0.6521452879768534,0.6531981842285285,0.6519478699296644,0,5.4,1
91,0.6525136276586481,0.6526268108419525,0.653544852217643,0,5.4,1
92,0.6523098030161777,0.6533503606399035,0.6530665721970692,0,5.4,1
93,0.6537164066023998,0.6525277854432823,0.6518244836501711,0,5.4,1
94,0.6538047543422677,0.6510087105176758,0.6535783879756591,0,5.4,1
95,0.6523385931480594,0.6532886675001569,0.652322141644127,0,5.4,1
96,0.6523082211407996,0.6526813064487286,0.654584460716142,0,5.4,1
97,0.6537822126181295,0.6535724559429912,0.6506111852351549,0,5.4,1
98,0.6528773799018462,0.6522481098764311,0.6535889074469236,0,5.4,1
99,0.6521531182599751,0.6520650868951828,0.652484283870384,0,5.4,1
100,0.6522193197445493,0.6538973731456565,0.6545677719309028,0,5.4,1
101,0.6529412085733532,0.6529831282708735,0.6512769965818046,0,5.4,1
102,0.6530747979490353,0.652128836472921,0.653025443437238,0,5.4,1
103,0.6532556063047542,0.6525220115981522,0.6523543328080716,0,5.4,1
104,0.6525154468153329,0.653214635732461,0.6538315671299268,0,5.4,1
105,0.6529802018014239,0.6529349601656098,0.6525771399550795,0,5.4,1
106,0.6526938823579846,0.653557428126899,0.6529705523616174,0,5.4,1
107,0.6529925404293733,0.6525318983192654,0.6532187486084441,0,5.4,1
108,0.6515913943132055,0.6530501997869056,0.6511638133985004,0,5.4,1
109,0.6535148756792277,0.6521617394807858,0.6541605972085753,0,5.4,1
110,0.6520357431069188,0.652123774471711,0.6527022662974887,0,5.4,1
111,0.6534737469193966,0.6540742268129301,0.6534202795316162,0,5.4,1
112,0.6520219016973603,0.6530089919333056,0.6515735982152018,0,5.4,1
113,0.6549198182963029,0.6527777217530248,0.6543203666217652,0,5.4,1
114,0.6522727871323297,0.6529390730415929,0.6506111852351549,0,5.4,1
115,0.653549044187395,0.6510841659732121,0.6548275949617586,0,5.4,1
116,0.6521946424886507,0.6544238212714941,0.6513885187959619,0,5.4,1
117,0.6520063993186547,0.653171766909714,0.6532556063047542,0,5.4,1
118,0.6543539023797813,0.6520630304571913,0.6529185086616773,0,5.4,1
119,0.651935531301715,0.6518368222781205,0.6531652812206638,0,5.4,1
120,0.6527358020555047,0.6539347054045801,0.6522830693222874,0,5.4,1
121,0.6538603572618086,0.6512240037566377,0.6536094718268392,0,5.4,1
122,0.649658896257528,0.6541023841946606,0.6527399940252567,0,5.4,1
123,0.6545472075509873,0.6519684343095798,0.6534572954154643,0,5.4,1
124,0.6533101019115304,0.6526100429629444,0.6511847732472604,0,5.4,1
125,0.6529760889254408,0.6538315671299268,0.6521494008528366,0,5.4,1
126,0.6511129561050939,0.6526306073428599,0.6536876164705182,0,5.4,1
127,0.6548275949617586,0.6523752926568317,0.6527735297832729,0,5.4,1
128,0.6512075522527052,0.6529802018014239,0.6549379307693823,0,5.4,1
129,0.6526226188722004,0.6539011696465641,0.6515117468879174,0,5.4,1
130,0.6526100429629444,0.6515900497191341,0.6552628479720477,0,5.4,1
131,0.6551587605721676,0.6526980743277366,0.6533017179720264,0,5.4,1
132,0.6515777110911849,0.6529143957856942,0.6504219929399321,0,5.4,1
133,0.6537575353622309,0.6524702051795188,0.6530377820651874,0,5.4,1
134,0.6516249300712216,0.6536789952497074,0.6520525109859269,0,5.4,1
135,0.6529925404293733,0.652400286287806,0.6526018172109782,0,5.4,1
136,0.6520692788649349,0.6523166050803035,0.6534358610040908,0,5.4,1
137,0.6539878564172849,0.6529514116695422,0.6525606884511471,0,5.4,1
138,0.652243997000448,0.6535601173150418,0.6521617394807858,0,5.4,1
139,0.6534442449435948,0.6526603465999685,0.6544461257143256,0,5.4,1
140,0.6530377820651874,0.6527704451262856,0.6514995664475058,0,5.4,1
141,0.6542742549544931,0.652480091900632,0.654244911166229,0,5.4,1
142,0.650228687768726,0.6530871365769847,0.6525648013271302,0,5.4,1
143,0.6551336087536556,0.6537418747959876,0.6534065172158267,0,5.4,1
144,0.6520835948371069,0.6532639902442582,0.6537780997421464,0,5.4,1
145,0.652828025390049,0.6509936827015838,0.6530295563132211,0,5.4,1
146,0.6524046364450958,0.6525765072049283,0.6517171534057659,0,5.4,1
147,0.6535847945709405,0.6543539023797813,0.6512281166326208,0,5.4,1
148,0.6514865950694053,0.6517800329520461,0.6537376828262356,0,5.4,1
149,0.6528197996380828,0.6526223815908937,0.6541400328286598,0,5.4,1
150,0.652094430683447,0.6509751747596597,0.651759073103286,0,5.4,1
151,0.6537122937264167,0.6548885762575851,0.6511458591129586,0,5.4,1
152,0.6541893873404571,0.6525689142031132,0.6554767175231692,0,5.4,1
153,0.652148926290223,0.6526435787209606,0.6523752926568317,0,5.4,1
154,0.6533668121438359,0.6528074610101334,0.6522193197445493,0,5.4,1
155,0.6518932161353503,0.6531172713029378,0.6526687305394726,0,5.4,1
156,0.652478430931485,0.6529431859175759,0.6530336691892042,0,5.4,1
157,0.6529579764523613,0.6502164282345456,0.6533352537300424,0,5.4,1
158,0.6537698739901803,0.6541935002164402,0.6537081808504336,0,5.4,1
159,0.6534161666556332,0.6544649500313251,0.6523673832799411,0,5.4,1
160,0.6532807581232662,0.6529537844826093,0.6540478885878844,0,5.4,1
161,0.6518039192702557,0.6526388330948262,0.6503561869242024,0,5.4,1
162,0.6525932750839364,0.6516165461317176,0.6532597982745062,0,5.4,1
163,0.6533914893997346,0.6528814927778294,0.6529308472896267,0,5.4,1
164,0.6527399940252567,0.6537963704027637,0.6526519626604645,0,5.4,1
165,0.6528115738861165,0.653527214307177,0.6540618881849808,0,5.4,1
166,0.6524126249157552,0.6504302186918983,0.6516764201147793,0,5.4,1
167,0.6535658120664031,0.65389278570706,0.6527232261462487,0,5.4,1
168,0.6504302186918983,0.6519972244414616,0.654263419108153,0,5.4,1
169,0.6546263804136621,0.6540017769206123,0.6518135687100621,0,5.4,1
170,0.6525771399550795,0.6525031081873837,0.6510306985854317,0,5.4,1
171,0.6511554294589963,0.6527944896320329,0.6545006213211018,0,5.4,1
172,0.6550613170488755,0.6535025370512784,0.652400286287806,0,5.4,1
173,0.6526182687149106,0.6522974643882283,0.6544567242793589,0,5.4,1
174,0.6532933340325223,0.6514991709786613,0.6528238334202969,0,5.4,1
175,0.6517381132545259,0.6527539936223531,0.6515448080833199,0,5.4,1
176,0.6522243817457593,0.6547353716272144,0.6530292399381455,0,5.4,1
177,0.6522193197445493,0.6522069811166,0.6532434258643427,0,5.4,1
178,0.6557769574699359,0.6523344802720763,0.6530789108250185,0,5.4,1
179,0.6525136276586481,0.6530795435751697,0.6536664193404513,0,5.4,1
180,0.6509081032436276,0.6543874381377974,0.6545173892001098,0,5.4,1
181,0.655505507655051,0.6514584376876748,0.6508949736779893,0,5.4,1
182,0.651392631671945,0.6526347202188431,0.6513227127802322,0,5.4,1
183,0.653574196005907,0.6511973491565164,0.6547814832944865,0,5.4,1
184,0.653140603964765,0.6538315671299268,0.6516394042309315,0,5.4,1
185,0.6530963114541778,0.6526687305394726,0.6524758999308801,0,5.4,1
186,0.6517463390064921,0.654695271086379,0.653449069663498,0,5.4,1
187,0.6537863254941126,0.6515612595872524,0.65383568000591,0,5.4,1
188,0.652480091900632,0.6539682411625962,0.6515955862829576,0,5.4,1
189,0.6522522227524142,0.6524660923035357,0.6547487384741595,0,5.4,1
190,0.654982697842583,0.6522872612920395,0.6517003855267578,0,5.4,1
191,0.6511993265007391,0.6540248723011328,0.6524290764196877,0,5.4,1
192,0.6523838347838736,0.6513350514081816,0.6544238212714941,0,5.4,1
193,0.6540478885878844,0.6532178785769861,0.6519560956816306,0,5.4,1
194,0.6526552845987585,0.6530871365769847,0.6532434258643427,0,5.4,1
195,0.6532891420627703,0.6519980153791507,0.6516375059804776,0,5.4,1
196,0.650964892569702,0.6538027769980451,0.6550243011650275,0,5.4,1
197,0.6532933340325223,0.652086046743943,0.6503338033876019,0,5.4,1
198,0.6538315671299268,0.6540618881849808,0.6534285052835824,0,5.4,1
199,0.6523459488685677,0.6527022662974887,0.6540772323761486,0,5.4,1
200,0.6536835035945351,0.6511294076090263,0.6515941625951173,0,5.4,1
201,0.6532136866072341,0.6533436376695465,0.6522579175037754,0,5.4,1
202,0.6523591575279749,0.653679390718552,0.6543991440155954,0,5.4,1
203,0.6518080321462387,0.651816257898205,0.6507222328866988,0,5.4,1
204,0.6539179375255721,0.6521824620482392,0.6549282022358069,0,5.4,1
205,0.652828025390049,0.6531817327245961,0.6507427972666143,0,5.4,1
206,0.6519231926737658,0.6532352001123766,0.6556946999502739,0,5.4,1
207,0.6527609538740169,0.6522285737155114,0.6507236565745391,0,5.4,1
208,0.6520794819611238,0.6532516516163088,0.6533010061281062,0,5.4,1
209,0.6533687894880585,0.652492667809888,0.6526561546302165,0,5.4,1
210,0.6537904383700958,0.6510594887173135,0.6514748891916071,0,5.4,1
211,0.6534943112993121,0.6538685830137748,0.6537369709823154,0,5.4,1
212,0.6512644206725486,0.653549044187395,0.6524130203845998,0,5.4,1
213,0.6534161666556332,0.6516599686108469,0.6530912494529678,0,5.4,1
214,0.6537628346447476,0.6556995246701771,0.6546263804136621,0,5.4,1
215,0.6518285965261542,0.6503109452883882,0.652437302171654,0,5.4,1
216,0.653528084338635,0.6518680643168383,0.6537418747959876,0,5.4,1
217,0.6538973731456565,0.6552422835921321,0.651433760431776,0,5.4,1
218,0.6506235238631042,0.6517956935182895,0.6527252034904714,0,5.4,1
219,0.6545970366253979,0.6539011696465641,0.6553977028480322,0,5.4,1
220,0.652437302171654,0.6520589175812082,0.6492457104087638,0,5.4,1
221,0.6519477117421265,0.6536748032799554,0.6543455184402772,0,5.4,1
222,0.6521576266048028,0.6525277854432823,0.6536876164705182,0,5.4,1
223,0.654211375408213,0.6525345875074082,0.652098622653199,0,5.4,1
224,0.652865041273897,0.652906170033728,0.6514625505636579,0,5.4,1
225,0.6518697252859853,0.6524578665515695,0.6546829324584297,0,5.4,1
226,0.6516542738594857,0.6536203076731792,0.6525303955376561,0,5.4,1
227,0.6538151156259944,0.6513720672920295,0.6509854569496175,0,5.4,1
228,0.6533771734275626,0.6529831282708735,0.6545467329883738,0,5.4,1
229,0.6509566668177359,0.6531323782127988,0.6532064099804947,0,5.4,1
230,0.6554689663338165,0.6525429714469122,0.6515494746156854,0,5.4,1
231,0.6521206107209547,0.6513021484003167,0.6541071298207949,0,5.4,1
232,0.6541647100845583,0.6538233413779606,0.6523262545201101,0,5.4,1
233,0.6513901797651089,0.6536831872194594,0.6520567029556789,0,5.4,1
234,0.6523291809895596,0.6539388973743321,0.6527819137227768,0,5.4,1
235,0.6521123849689885,0.6514707763156241,0.6547405127221932,0,5.4,1
236,0.6533585863918696,0.6533380220119541,0.6518697252859853,0,5.4,1
237,0.6518722562865903,0.652811257511041,0.6516668497687417,0,5.4,1
238,0.6540783396889132,0.6530007661813395,0.6539631791613862,0,5.4,1
239,0.6514656352206452,0.651750689163782,0.6520063993186547,0,5.4,1
240,0.654613013566717,0.6534326181595655,0.6534531825394811,0,5.4,1
241,0.6517710162623908,0.6510142470814994,0.6537493096102648,0,5.4,1
242,0.6519896314396466,0.6542910228335012,0.6536035397941712,0,5.4,1
243,0.654341563751832,0.6540454366810483,0.6502944937844558,0,5.4,1
244,0.6506775449072669,0.6521656941692311,0.6548275949617586,0,5.4,1
245,0.655546636414882,0.6524866566834513,0.6525894785830288,0,5.4,1
246,0.6505823951032732,0.6531035880809171,0.6521781909847183,0,5.4,1
247,0.6542155673779648,0.6524339802333599,0.6518135687100621,0,5.4,1
248,0.653333909135971,0.6535354400591432,0.6524331892956708,0,5.4,1
249,0.6527525699345128,0.6510757820337081,0.6538215222212758,0,5.4,1
250,0.6510142470814994,0.6534285052835824,0.654144145704643,0,5.4,1
251,0.6553054795134879,0.6541820316199488,0.6515368987064294,0,5.4,1
252,0.6513062612762999,0.6513309385321985,0.652363270403958,0,5.4,1
253,0.6537292988867315,0.6542994067730051,0.6540898082854045,0,5.4,1
254,0.6535724559429912,0.6533174576320386,0.6534120537796501,0,5.4,1
255,0.6514707763156241,0.6521494008528366,0.6533791507717852,0,5.4,1
256,0.654970121933327,0.6530292399381455,0.6516794256779977,0,5.4,1
257,0.6502204620167599,0.6530048790573226,0.6523139158921608,0,5.4,1
258,0.6552422835921321,0.651779242014357,0.6539714049133525,0,5.4,1
259,0.6509877506689159,0.6534358610040908,0.6529454005431053,0,5.4,1
260,0.6527944896320329,0.6520063993186547,0.6515075549181653,0,5.4,1
261,0.6532722159962244,0.6542058388443895,0.6547405127221932,0,5.4,1
262,0.65286915414988,0.6534655211674304,0.6521329493489041,0,5.4,1
263,0.6551671445116716,0.651754881133534,0.6516668497687417,0,5.4,1
264,0.6518861767899177,0.6519231926737658,0.6530747979490353,0,5.4,1
265,0.6527457678703869,0.6546089006907339,0.6550448655449431,0,5.4,1
266,0.6532849500930183,0.6527819137227768,0.6497469276223203,0,5.4,1
267,0.6531940713525454,0.6512198908806546,0.6544526114033759,0,5.4,1
268,0.6517003855267578,0.6536454594916913,0.6530166640288895,0,5.4,1
269,0.6520794819611238,0.6528115738861165,0.6519478699296644,0,5.4,1
270,0.6536999550984675,0.6519770555303906,0.6532514143350022,0,5.4,1
271,0.6535066499272615,0.6539878564172849,0.6524496407996032,0,5.4,1
272,0.6524249635437046,0.6524331892956708,0.6519560956816306,0,5.4,1
273,0.6524465561426159,0.6516794256779977,0.6544712775328376,0,5.4,1
274,0.6532681031202413,0.6534614082914474,0.6522974643882283,0,5.4,1
275,0.6528447932690571,0.6550665372376233,0.653557428126899,0,5.4,1
276,0.6515530338352862,0.6508291676622595,0.6526141558389275,0,5.4,1
277,0.6533687894880585,0.6544922373815977,0.6511680053682524,0,5.4,1
278,0.6543950311396123,0.6513021484003167,0.6543744667596969,0,5.4,1
279,0.6511993265007391,0.6536588263386364,0.6525318983192654,0,5.4,1
280,0.6537251069169795,0.6516123541619656,0.6529034808455852,0,5.4,1
281,0.6544155955195279,0.6540207594251497,0.6533174576320386,0,5.4,1
282,0.6505853215727228,0.6525303955376561,0.6527693378135209,0,5.4,1
283,0.6522357712484818,0.6529719760494577,0.6505083633355773,0,5.4,1
284,0.6533897493368186,0.653544852217643,0.6554186626967923,0,5.4,1
285,0.6537945512460789,0.6517298875025598,0.6508497320421751,0,5.4,1
286,0.6526435787209606,0.6517926088613021,0.6546641081414302,0,5.4,1
287,0.6525894785830288,0.654230516100288,0.6520918205890731,0,5.4,1
288,0.6531529425927144,0.6536629392146195,0.6529472987935591,0,5.4,1
289,0.6518890241655984,0.6524046364450958,0.6510715900639561,0,5.4,1
290,0.6534285052835824,0.6516928716187118,0.653642374834704,0,5.4,1
291,0.6519938234093987,0.6529831282708735,0.6537334908564836,0,5.4,1
292,0.6539261632775383,0.6526635103507248,0.6512569067645025,0,5.4,1
293,0.6509039112738756,0.6523040291710476,0.6548443628407666,0,5.4,1
294,0.6554479273912874,0.6528732670258631,0.6523838347838736,0,5.4,1
295,0.6527992352581672,0.6534572954154643,0.6528156867620997,0,5.4,1
296,0.6530879275146737,0.6530418158474016,0.6529454005431053,0,5.4,1
297,0.6513268256562154,0.6542922092400347,0.6542551933561868,0,5.4,1
298,0.653021330561255,0.6508168290343103,0.6522357712484818,0,5.4,1
299,0.6550371934493592,0.6534149011553306,0.651721345375518,0,5.4,1
300,0.6509484410657697,0.6522645613803635,0.6523262545201101,0,5.4,1
301,0.6516375059804776,0.6530543917566577,0.6550371934493592,0,5.4,1
302,0.6553327668637605,0.6528033481341503,0.6513638415400633,0,5.4,1
303,0.6529705523616174,0.6535616200966511,0.6535406602478909,0,5.4,1
304,0.6504754603277124,0.6533626992678527,0.6517298875025598,0,5.4,1
305,0.6545970366253979,0.6525303955376561,0.6539472813138362,0,5.4,1
306,0.651392631671945,0.6525771399550795,0.6518491609060698,0,5.4,1
307,0.6539796306653187,0.6533297962599879,0.6527786708782518,0,5.4,1
308,0.6534232850948346,0.652832217359801,0.6536664193404513,0,5.4,1
309,0.6510101342055162,0.6529925404293733,0.6520589175812082,0,5.4,1
310,0.6521781909847183,0.6521823038607014,0.6540577753089977,0,5.4,1
311,0.6551839123906796,0.6536161157034271,0.6521740781087352,0,5.4,1
312,0.6516764201147793,0.6518450480300867,0.6534326181595655,0,5.4,1
313,0.6532220705467381,0.6534442449435948,0.6523124131105515,0,5.4,1
314,0.6519225599236145,0.6515410906761814,0.653196918728226,0,5.4,1
315,0.6543621281317475,0.6534778597953798,0.653255764492292,0,5.4,1
316,0.6505823951032732,0.652865041273897,0.6531611683446806,0,5.4,1
317,0.6555947254263768,0.6532597982745062,0.6518471044680783,0,5.4,1
318,0.6514502119357085,0.6505289277154928,0.6537493096102648,0,5.4,1
319,0.6512939226483505,0.6552916381039294,0.6515694853392187,0,5.4,1
320,0.6541443038921807,0.6521279664414631,0.653888593737308,0,5.4,1
321,0.6530334319078975,0.6540688484366445,0.6535909638849151,0,5.4,1
322,0.6526429459708092,0.6522234326205324,0.649488370091767,0,5.4,1
323,0.6510060213295331,0.652984314677407,0.6550859943047741,0,5.4,1
324,0.6544335498050695,0.6532723741837623,0.6513734118861009,0,5.4,1
325,0.6532516516163088,0.6513350514081816,0.6531693940966468,0,5.4,1
326,0.6539011696465641,0.6533226778207863,0.6529579764523613,0,5.4,1
327,0.6529390730415929,0.6538151156259944,0.6550119625370783,0,5.4,1
328,0.6513556157880971,0.6517257746265767,0.6528115738861165,0,5.4,1
329,0.6517297293150219,0.6534652047923547,0.6512392688540365,0,5.4,1
330,0.6555507492908651,0.6521946424886507,0.6524126249157552,0,5.4,1
331,0.6504877989556618,0.6533462477639204,0.6522522227524142,0,5.4,1
332,0.6543203666217652,0.651750689163782,0.655343207241256,0,5.4,1
333,0.651750689163782,0.6537125310077235,0.6500571333839692,0,5.4,1
334,0.6549790595292134,0.6529431859175759,0.6538151156259944,0,5.4,1
335,0.6524549400821199,0.653532276308387,0.6543371345007732,0,5.4,1
336,0.6525442369472148,0.651898515417867,0.6521823038607014,0,5.4,1
337,0.652243997000448,0.6533297962599879,0.6526881876066234,0,5.4,1
338,0.6531693940966468,0.6530624593210861,0.6508497320421751,0,5.4,1
339,0.652815449480793,0.6517968008310541,0.6537879864632596,0,5.4,1
340,0.6514707763156241,0.6541811615884908,0.6540454366810483,0,5.4,1
341,0.6552509839067119,0.6519141759841104,0.6540520805576364,0,5.4,1
342,0.6545595461789365,0.653646487710687,0.651503679323489,0,5.4,1
343,0.6502122362647937,0.6516584658292377,0.6525262035679041,0,5.4,1
344,0.6528897185297956,0.6535354400591432,0.653449069663498,0,5.4,1
345,0.6534987405503708,0.6528699450875691,0.6533394456997944,0,5.4,1
346,0.6523056901401946,0.6529349601656098,0.6511664234928742,0,5.4,1
347,0.6531447168407482,0.6521535137288197,0.6548474474977539,0,5.4,1
348,0.6519351358328705,0.6536748032799554,0.6515704344644455,0,5.4,1
349,0.653370925019819,0.6524825438074682,0.6513638415400633,0,5.4,1
350,0.6530669676659137,0.6545551169278778,0.6549868898123351,0,5.4,1
351,0.6538192285019775,0.6509278766858541,0.6523838347838736,0,5.4,1
352,0.6512404552605702,0.6530871365769847,0.6504466701958307,0,5.4,1
353,0.6538005623725157,0.6540059688903643,0.6537586426749956,0,5.4,1
354,0.6527910095062011,0.6518080321462387,0.6544238212714941,0,5.4,1
355,0.6538550579792919,0.6539598572230922,0.6510757820337081,0,5.4,1
356,0.6508250547862764,0.6523139158921608,0.6532886675001569,0,5.4,1
357,0.654609612534654,0.6513105323398207,0.6526351947814565,0,5.4,1
358,0.6522974643882283,0.6531652812206638,0.6534696340434135,0,5.4,1
359,0.6522028682406169,0.6528362511420153,0.6526429459708092,0,5.4,1
360,0.6531256552424418,0.6522872612920395,0.6538173302515238,0,5.4,1
361,0.6536547134626532,0.6537739868661633,0.6526593974747417,0,5.4,1
362,0.6511847732472604,0.6531927267584741,0.6518764482563424,0,5.4,1
363,0.6525442369472148,0.652285125760279,0.6537534224862478,0,5.4,1
364,0.6539263214650761,0.6530250479683936,0.6529705523616174,0,5.4,1
365,0.6528609283979139,0.6529514116695422,0.653021330561255,0,5.4,1
366,0.6532472223652501,0.6521447343204712,0.6494786415581916,0,5.4,1
367,0.6535642301910249,0.6545266431710718,0.6548351088698047,0,5.4,1
368,0.6517669033864076,0.6509114251819217,0.6529760889254408,0,5.4,1
369,0.653557428126899,0.6526100429629444,0.6519980153791507,0,5.4,1
370,0.6515735982152018,0.653140603964765,0.6533750378958021,0,5.4,1
371,0.6544545096538296,0.6521615021994792,0.6523920605358398,0,5.4,1
372,0.6509114251819217,0.654382692511663,0.6522398841244649,0,5.4,1
373,0.6539263214650761,0.6522243817457593,0.655670180881913,0,5.4,1
374,0.6534243924075993,0.6513103741522829,0.6520095630694109,0,5.4,1
375,0.652480091900632,0.65391374555582,0.6509667908201557,0,5.4,1
376,0.6526511717227754,0.6532352001123766,0.6539014860216397,0,5.4,1
377,0.6532516516163088,0.653296893252123,0.6533010061281062,0,5.4,1
378,0.6539014860216397,0.6526388330948262,0.6531323782127988,0,5.4,1
379,0.652488475840136,0.6545299651093658,0.6517884168915501,0,5.4,1
380,0.6521247235969378,0.6524249635437046,0.6531447168407482,0,5.4,1
381,0.6536077317639232,0.6519686715908866,0.6509961346084199,0,5.4,1
382,0.6527334292424376,0.6518327094021373,0.6539426147814706,0,5.4,1
383,0.6532388384257461,0.6541191520736687,0.654609612534654,0,5.4,1
384,0.6532434258643427,0.6527252034904714,0.6508949736779893,0,5.4,1
385,0.6526729225092246,0.6525513553864163,0.6545593088976299,0,5.4,1
386,0.6524126249157552,0.6533997151517007,0.6517216617505935,0,5.4,1
387,0.6530501206931367,0.6520136759453941,0.651779242014357,0,5.4,1
388,0.652471707961128,0.6531130793331859,0.6547856752642385,0,5.4,1
389,0.6518244836501711,0.6529349601656098,0.6512815840204011,0,5.4,1
390,0.6533604055485546,0.6523040291710476,0.6522201897760073,0,5.4,1
391,0.6524537536755863,0.6537822126181295,0.6536711649665857,0,5.4,1
392,0.6548433346217709,0.6527992352581672,0.6542428547282374,0,5.4,1
393,0.6513734118861009,0.6522621094735275,0.6512518447632926,0,5.4,1
394,0.6543371345007732,0.654211375408213,0.6534400529738427,0,5.4,1
395,0.6518368222781205,0.6522193197445493,0.6535601173150418,0,5.4,1
396,0.6522686742563466,0.6532639902442582,0.6527581064983362,0,5.4,1
397,0.6518806402260944,0.6523794846265838,0.6525052437191441,0,5.4,1
398,0.6534243924075993,0.651935531301715,0.651347390036131,0,5.4,1
399,0.6538047543422677,0.6539682411625962,0.6543119826822612,0,5.4,1
400,0.6539590662854031,0.6524537536755863,0.6531323782127988,0,5.4,1
401,0.6524549400821199,0.6516626577989898,0.6530669676659137,0,5.4,1
402,0.6492128074008989,0.6534243924075993,0.6505577178473746,0,5.4,1
403,0.6549872852811796,0.6540906783168625,0.6536135847028223,0,5.4,1
404,0.6537418747959876,0.6517003855267578,0.6523291809895596,0,5.4,1
405,0.6514707763156241,0.6526223815908937,0.6536835035945351,0,5.4,1
406,0.6521041592170224,0.6540824525648963,0.6514995664475058,0,5.4,1
407,0.6563157442237229,0.6530627756961617,0.6537292988867315,0,5.4,1
408,0.6525890831141843,0.652811257511041,0.654605420564902,0,5.4,1
409,0.6497844971625506,0.6524043991637891,0.6496282078751926,0,5.4,1
410,0.6543127736199502,0.6528362511420153,0.6530418949411705,0,5.4,1
411,0.6537292988867315,0.6530082800893855,0.6557330604281932,0,5.4,1
412,0.6508702964220906,0.6531035880809171,0.6503315096683038,0,5.4,1
413,0.6531214632726898,0.6525262035679041,0.6552593678462159,0,5.4,1
414,0.6527416549944037,0.6517915806423064,0.6520095630694109,0,5.4,1
415,0.6531817327245961,0.6524414150476371,0.6523879476598566,0,5.4,1
416,0.6515033629484133,0.6531340391819459,0.6538382901002838,0,5.4,1
417,0.6542181774723388,0.6535066499272615,0.6515201308274213,0,5.4,1
418,0.6515900497191341,0.6544855144112407,0.6543703538837138,0,5.4,1
419,0.6556324531541449,0.6516291220409737,0.6518512964378302,0,5.4,1
420,0.6501074370209934,0.653201110697978,0.6538550579792919,0,5.4,1
421,0.6541071298207949,0.6531570554686975,0.6513309385321985,0,5.4,1
422,0.6514913406955396,0.651158197740908,0.6533092318800724,0,5.4,1
423,0.6548401708710146,0.6545676928371339,0.6526603465999685,0,5.4,1
424,0.6517751291383739,0.6521164978449716,0.6535806816949574,0,5.4,1
425,0.6526306073428599,0.6525031081873837,0.6532187486084441,0,5.4,1
426,0.652111198562455,0.6530879275146737,0.6526184269024484,0,5.4,1
427,0.6543292251238827,0.6523139158921608,0.6517093231226442,0,5.4,1
428,0.6517129614360139,0.6527735297832729,0.6558588195207535,0,5.4,1
429,0.6535107628032446,0.6533380220119541,0.6506564268709691,0,5.4,1
430,0.6524968597796401,0.6511721973380044,0.6526310028117044,0,5.4,1
431,0.6536300362067546,0.6537040679744506,0.6534655211674304,0,5.4,1
432,0.6536547134626532,0.6525894785830288,0.6519848858135123,0,5.4,1
433,0.6499900618679371,0.652832217359801,0.6532472223652501,0,5.4,1
434,0.6557481673380542,0.6533421348879372,0.654144145704643,0,5.4,1
435,0.6516584658292377,0.6514949790089093,0.6525345875074082,0,5.4,1
436,0.65383568000591,0.6524043991637891,0.6521535137288197,0,5.4,1
437,0.6506523930887549,0.6539975849508602,0.651754881133534,0,5.4,1
438,0.6541400328286598,0.6533010061281062,0.6519643214335967,0,5.4,1
439,0.6513720672920295,0.6533544735158866,0.6546171264427001,0,5.4,1
440,0.6535783879756591,0.651054822184948,0.6531298472121938,0,5.4,1
441,0.6529020571577449,0.654341563751832,0.6514748891916071,0,5.4,1
442,0.6533562135788025,0.6520189752279107,0.6526603465999685,0,5.4,1
443,0.6518327094021373,0.6521041592170224,0.6539343890295044,0,5.4,1
444,0.6540520805576364,0.6540269287391244,0.652098622653199,0,5.4,1
445,0.6528979442817618,0.6521206107209547,0.6528074610101334,0,5.4,1
446,0.6538110027500114,0.6534614082914474,0.6521041592170224,0,5.4,1
447,0.6518974081051024,0.6522621094735275,0.6541401119224286,0,5.4,1
448,0.6526223815908937,0.6519766600615461,0.6531899584765624,0,5.4,1
449,0.6529328246338493,0.652865753117817,0.6517381132545259,0,5.4,1
450,0.6526593974747417,0.6537246323543661,0.6526635103507248,0,5.4,1
451,0.6542742549544931,0.6521866540179913,0.653867633888548,0,5.4,1
452,0.6522193197445493,0.6530747979490353,0.652675848978674,0,5.4,1
453,0.6520063993186547,0.6526854984184807,0.6526184269024484,0,5.4,1
454,0.652675848978674,0.6525894785830288,0.6520712562091575,0,5.4,1
455,0.6539892010113563,0.6537963704027637,0.6530082800893855,0,5.4,1
456,0.6510471500893642,0.6522357712484818,0.65286915414988,0,5.4,1
457,0.6542593062321699,0.6524825438074682,0.6528321382660321,0,5.4,1
458,0.6511787621208236,0.6529020571577449,0.6520959334650562,0,5.4,1
459,0.6526896903882325,0.6541107681341646,0.6538424820700359,0,5.4,1
460,0.6545883363108184,0.6526388330948262,0.6533256833840048,0,5.4,1
461,0.6522956452315435,0.6527986816017849,0.650698504756027,0,5.4,1
462,0.6525277854432823,0.6511376333609925,0.6542387418522543,0,5.4,1
463,0.6516961935570058,0.652857369178313,0.6519644796211346,0,5.4,1
464,0.6550654299248586,0.6527293163664545,0.6520054501934278,0,5.4,1
465,0.6526393867512085,0.6534065172158267,0.6536119237336752,0,5.4,1
466,0.6525360111952485,0.6534819726713628,0.6530789108250185,0,5.4,1
467,0.6515694853392187,0.6549214792654499,0.6543580152557644,0,5.4,1
468,0.6544503176840776,0.6510715900639561,0.6501828924765296,0,5.4,1
469,0.6518697252859853,0.6528485897699645,0.6526429459708092,0,5.4,1
470,0.6538424820700359,0.652115390532207,0.6530879275146737,0,5.4,1
471,0.6526429459708092,0.6531323782127988,0.6530048790573226,0,5.4,1
472,0.652828025390049,0.6523797219078905,0.6536752778425688,0,5.4,1
473,0.6520399350766708,0.6534987405503708,0.6533897493368186,0,5.4,1
474,0.6536629392146195,0.6529596374215084,0.6525483498231979,0,5.4,1
475,0.6525639312956723,0.6517045774965099,0.6531046953936818,0,5.4,1
476,0.6526388330948262,0.6549173663894667,0.6529596374215084,0,5.4,1
477,0.6523501408383197,0.6513314921885808,0.6521698861389832,0,5.4,1
478,0.6528773799018462,0.6532352001123766,0.6523427060240424,0,5.4,1
479,0.6523509317760087,0.6519108540458164,0.6537451967342817,0,5.4,1
480,0.6530669676659137,0.6541275360131726,0.6528741370573211,0,5.4,1
481,0.653025443437238,0.6527457678703869,0.6502862680324896,0,5.4,1
482,0.6531214632726898,0.6533352537300424,0.6539179375255721,0,5.4,1
483,0.6536752778425688,0.6528773799018462,0.6523673832799411,0,5.4,1
484,0.6518974081051024,0.6523752926568317,0.6547395635969663,0,5.4,1
485,0.653296893252123,0.6520835948371069,0.6510800530972289,0,5.4,1
486,0.6506811041268677,0.6534984241752952,0.6519560956816306,0,5.4,1
487,0.6547311796574623,0.6533687894880585,0.6547144117784542,0,5.4,1
488,0.6526964133585896,0.6528403640179984,0.6525318983192654,0,5.4,1
489,0.6522118058365033,0.6530250479683936,0.653532276308387,0,5.4,1
490,0.6537780997421464,0.6524331892956708,0.6511787621208236,0,5.4,1
491,0.6514949790089093,0.6522621094735275,0.6559803866435618,0,5.4,1
492,0.6545101916671393,0.6529719760494577,0.6516147269750328,0,5.4,1
493,0.6525771399550795,0.6518820639139347,0.6533051190040893,0,5.4,1
494,0.6515997782527095,0.6551336087536556,0.6513482600675888,0,5.4,1
495,0.6540660010609639,0.6513391642841647,0.6523139158921608,0,5.4,1
496,0.6523291809895596,0.6518093767403101,0.6543413264705252,0,5.4,1
497,0.6524496407996032,0.6536629392146195,0.6530295563132211,0,5.4,1
498,0.6535560044390587,0.6530377820651874,0.6516928716187118,0,5.4,1
499,0.653188534788722,0.6517171534057659,0.6526645385697205,0,5.4,1
500,0.6538439057578762,0.6540084207972003,0.6523262545201101,0,5.4,1
501,0.6515201308274213,0.6535406602478909,0.6541359199526767,0,5.4,1
502,0.654111242696778,0.6513802930439957,0.6524290764196877,0,5.4,1
503,0.6535113164596269,0.6545635008673819,0.6523082211407996,0,5.4,1
504,0.6492292589048314,0.653449069663498,0.6539055988976228,0,5.4,1
505,0.6548569387500227,0.6513147243095727,0.6502918836900818,0,5.4,1
506,0.6528568155219308,0.6535189885552108,0.6541318070766936,0,5.4,1
507,0.6536917293465013,0.6527622193743193,0.6529760889254408,0,5.4,1
508,0.6513356841583329,0.6532765661535143,0.6542239513174689,0,5.4,1
509,0.6525072210633667,0.6520794819611238,0.6506276367390873,0,5.4,1
510,0.655686948760921,0.6533813653973145,0.6541233440434207,0,5.4,1
511,0.6509361024378203,0.6520424660772758,0.6526018172109782,0,5.4,1
512,0.6552174481486958,0.6525178196284002,0.6542700629847411,0,5.4,1
513,0.6502780422805233,0.654226403224305,0.650964892569702,0,5.4,1
514,0.6537081808504336,0.6512815840204011,0.6527827837542348,0,5.4,1
515,0.6539095535860681,0.652802873571537,0.655318055422744,0,5.4,1
516,0.6527457678703869,0.6543909182636292,0.6503602998001855,0,5.4,1
517,0.652111198562455,0.6525513553864163,0.6525387794771602,0,5.4,1
518,0.651972547185563,0.6526059300869613,0.6541235813247274,0,5.4,1
519,0.6523262545201101,0.6524249635437046,0.6525031081873837,0,5.4,1
520,0.6532597982745062,0.6525597393259203,0.6528867129665772,0,5.4,1
521,0.6523344802720763,0.653255764492292,0.6517463390064921,0,5.4,1
522,0.653574196005907,0.6523207970500556,0.6547479475364704,0,5.4,1
523,0.6537739868661633,0.6522152068685663,0.6521617394807858,0,5.4,1
524,0.6525597393259203,0.6527902976622809,0.6511596214287483,0,5.4,1
525,0.6508497320421751,0.6535025370512784,0.6537081808504336,0,5.4,1
526,0.6526100429629444,0.651507792199472,0.6521905296126675,0,5.4,1
527,0.6544167819260615,0.6544796614723416,0.6548904745080388,0,5.4,1
528,0.6530295563132211,0.6523385931480594,0.6511335204850094,0,5.4,1
529,0.6534274770645867,0.6543832461680453,0.6538340981305318,0,5.4,1
530,0.6521740781087352,0.652984314677407,0.6512569067645025,0,5.4,1
531,0.6536328835824352,0.6509458309713958,0.6547563314759743,0,5.4,1
532,0.6529390730415929,0.6539796306653187,0.6524167377917384,0,5.4,1
533,0.6534408439115318,0.6535889074469236,0.651935531301715,0,5.4,1
534,0.6539724331323482,0.6516207381014696,0.6511889652170124,0,5.4,1
535,0.650771587398496,0.652906170033728,0.6546870453344128,0,5.4,1
536,0.6525010517493921,0.6536244996429312,0.6529286326640973,0,5.4,1
537,0.6526676232267079,0.6526347202188431,0.6528362511420153,0,5.4,1
538,0.6526603465999685,0.6526268108419525,0.6497469276223203,0,5.4,1
539,0.6531735069726299,0.6527539936223531,0.6551559131964869,0,5.4,1
540,0.653642374834704,0.6540001950452341,0.651779242014357,0,5.4,1
541,0.652828025390049,0.6518261446193182,0.6529454005431053,0,5.4,1
542,0.6521905296126675,0.6537698739901803,0.6521946424886507,0,5.4,1
543,0.6536873791892114,0.6516626577989898,0.652459132051872,0,5.4,1
544,0.6517998063942726,0.6537904383700958,0.652984314677407,0,5.4,1
545,0.6533562135788025,0.653180150849218,0.6545006213211018,0,5.4,1
546,0.651935531301715,0.6522193197445493,0.651935531301715,0,5.4,1
547,0.6542428547282374,0.6533092318800724,0.6523385931480594,0,5.4,1
548,0.6527106502369927,0.6520063993186547,0.6515368987064294,0,5.4,1
549,0.6523262545201101,0.6520835948371069,0.652437302171654,0,5.4,1
550,0.653167574939962,0.6540143528298683,0.6545970366253979,0,5.4,1
551,0.652984314677407,0.6520095630694109,0.651972547185563,0,5.4,1
552,0.652675848978674,0.6528403640179984,0.6514502119357085,0,5.4,1
553,0.6546263804136621,0.6547060278389503,0.6547227957179583,0,5.4,1
554,0.6495582889834798,0.6509690054456851,0.6533051190040893,0,5.4,1
555,0.6554563904245604,0.6526980743277366,0.6533813653973145,0,5.4,1
556,0.6503315096683038,0.6539467276574538,0.6522933515122452,0,5.4,1
557,0.6552551758764638,0.6520776628044389,0.6517045774965099,0,5.4,1
558,0.6520301274493265,0.6530830237010016,0.6531529425927144,0,5.4,1
559,0.6542593062321699,0.6535148756792277,0.6540043079212172,0,5.4,1
560,0.6519393278026225,0.6514572512811412,0.6533520216090505,0,5.4,1
561,0.65208770771309,0.65286915414988,0.6516394042309315,0,5.4,1
562,0.6538760178280519,0.6532681822140103,0.6524758999308801,0,5.4,1
563,0.6513062612762999,0.6520465789532589,0.654851560373737,0,5.4,1
564,0.6541778396501968,0.6524088284148478,0.6523501408383197,0,5.4,1
565,0.6549379307693823,0.6528239125140659,0.6507345715146481,0,5.4,1
566,0.648945470461997,0.6532393129883596,0.6542675319841361,0,5.4,1
567,0.6537334908564836,0.6538340981305318,0.6525932750839364,0,5.4,1
568,0.6533997151517007,0.6519437570536812,0.6539343890295044,0,5.4,1
569,0.653905361616316,0.6521321584112151,0.6510087105176758,0,5.4,1
570,0.6524825438074682,0.6525730270790964,0.654575997682869,0,5.4,1
571,0.6523291809895596,0.6543455184402772,0.6507823441510673,0,5.4,1
572,0.6535683430670081,0.6531529425927144,0.6521452879768534,0,5.4,1
573,0.6528856056538125,0.6508702964220906,0.6546747067064635,0,5.4,1
574,0.6537754105540037,0.6540646564668925,0.6511763893077563,0,5.4,1
575,0.6524537536755863,0.6521041592170224,0.6536382619587209,0,5.4,1
576,0.6527693378135209,0.6540520805576364,0.6534400529738427,0,5.4,1
577,0.6515735982152018,0.6516969844946949,0.6516435171069145,0,5.4,1
578,0.6542155673779648,0.6547856752642385,0.6538802097978039,0,5.4,1
579,0.6514995664475058,0.6500189310935877,0.651935531301715,0,5.4,1
580,0.6520301274493265,0.6550284140410106,0.6540125336731835,0,5.4,1
581,0.6543413264705252,0.651004518547924,0.6527693378135209,0,5.4,1
