AppTimestamp(s),SensorTimestamp(s),Gyr_X,Gyr_Y,Gyr_Z,Label,Latitude,Longitude
0.069,2724731.454,0.1902,0.00374,-0.00649,1,0,5.4
0.071,2724731.473,0.13278,-0.00481,-0.00527,1,0,5.4
0.072,2724731.492,0.03077,-0.00786,-0.00344,1,0,5.4
0.076,2724731.511,-0.04375,-0.00298,-0.0016,1,0,5.4
0.077,2724731.53,-0.06819,-0.00481,-0.00221,1,0,5.4
0.09,2724731.549,-0.05108,-0.01153,-0.00466,1,0,5.4
0.111,2724731.568,-0.00771,0.00374,-0.00649,1,0,5.4
0.126,2724731.587,0.02772,0.0013,-0.00588,1,0,5.4
0.144,2724731.606,0.03444,0.00313,-0.00527,1,0,5.4
0.163,2724731.625,0.021,0.0013,-0.00405,1,0,5.4
0.182,2724731.644,0.00206,0.00985,-0.00527,1,0,5.4
0.201,2724731.663,-0.00893,0.00496,-0.00466,1,0,5.4
0.22,2724731.682,-0.01749,0.02023,-0.00344,1,0,5.4
0.24,2724731.701,-0.04803,0.02573,-0.00221,1,0,5.4
0.258,2724731.72,-0.11461,0.02634,-0.00038,1,0,5.4
0.278,2724731.739,-0.17081,0.02268,0.00328,1,0,5.4
0.298,2724731.758,-0.18913,0.02634,0.00512,1,0,5.4
0.317,2724731.778,-0.16714,0.01901,0.00267,1,0,5.4
0.336,2724731.797,-0.10423,0.01901,0.00023,1,0,5.4
0.355,2724731.816,-0.02726,0.01413,0.00023,1,0,5.4
0.375,2724731.835,0.04116,0.00313,0.00084,1,0,5.4
0.392,2724731.854,0.08269,-0.0097,-0.0016,1,0,5.4
0.413,2724731.873,0.09796,-0.00603,-0.00221,1,0,5.4
0.43,2724731.892,0.07781,-0.00053,-0.00283,1,0,5.4
0.449,2724731.911,0.0326,0.00191,-0.0016,1,0,5.4
0.468,2724731.93,-0.02604,0.01168,0.00023,1,0,5.4
0.488,2724731.949,-0.07552,0.00802,0.00084,1,0,5.4
0.506,2724731.968,-0.0969,0.00924,0.00084,1,0,5.4
0.527,2724731.987,-0.08407,0.00802,0.00084,1,0,5.4
0.544,2724732.006,-0.0462,0.00557,0.00084,1,0,5.4
0.562,2724732.025,0.00084,0.00191,0.00023,1,0,5.4
0.582,2724732.044,0.04238,-0.00176,-0.00099,1,0,5.4
0.602,2724732.063,0.06131,-0.0042,-0.00099,1,0,5.4
0.62,2724732.082,0.05643,-0.00359,-0.00099,1,0,5.4
0.64,2724732.101,0.03016,-0.00176,-0.00038,1,0,5.4
0.658,2724732.12,-0.00466,0.0013,0.00023,1,0,5.4
0.678,2724732.139,-0.0352,0.00313,0.00084,1,0,5.4
0.697,2724732.158,-0.04925,0.00435,0.00023,1,0,5.4
0.715,2724732.177,-0.04375,0.00313,0.00084,1,0,5.4
0.733,2724732.196,-0.02482,0.00191,0.00023,1,0,5.4
0.754,2724732.215,0.00206,0.00069,0.00023,1,0,5.4
0.772,2724732.234,0.02405,-0.00053,0.00023,1,0,5.4
0.792,2724732.253,0.03444,-0.00176,0.00023,1,0,5.4
0.811,2724732.272,0.02833,-0.00237,0.00084,1,0,5.4
0.832,2724732.291,0.01306,-0.00115,0.00023,1,0,5.4
0.851,2724732.31,-0.00771,0.00069,0.00084,1,0,5.4
0.868,2724732.329,-0.02237,0.00191,0.00084,1,0,5.4
0.887,2724732.348,-0.02726,0.00252,0.00023,1,0,5.4
0.907,2724732.367,-0.02115,0.00191,0.00023,1,0,5.4
0.929,2724732.386,-0.00832,0.00069,-0.00038,1,0,5.4
0.944,2724732.405,0.00634,-0.00053,0.00023,1,0,5.4
0.964,2724732.424,0.01672,-0.00053,0.00023,1,0,5.4
0.984,2724732.443,0.01794,-0.00053,0.00023,1,0,5.4
1.006,2724732.462,0.01306,8e-05,0.00023,1,0,5.4
1.021,2724732.481,0.00145,-0.00053,-0.00038,1,0,5.4
1.04,2724732.5,-0.00832,0.00069,0.00023,1,0,5.4
1.067,2724732.519,-0.01443,0.0013,0.00023,1,0,5.4
1.08,2724732.538,-0.01504,0.0013,0.00023,1,0,5.4
1.096,2724732.557,-0.00832,0.00069,0.00084,1,0,5.4
1.115,2724732.576,-0.00038,0.00069,0.00023,1,0,5.4
1.135,2724732.595,0.00817,8e-05,-0.00099,1,0,5.4
1.154,2724732.614,0.01,-0.00053,-0.00099,1,0,5.4
1.173,2724732.633,0.00878,8e-05,0.00023,1,0,5.4
1.195,2724732.652,0.00206,8e-05,0.00023,1,0,5.4
1.215,2724732.671,-0.00405,0.00069,-0.00038,1,0,5.4
1.234,2724732.69,-0.00893,0.00069,0.00023,1,0,5.4
1.248,2724732.71,-0.00954,0.0013,0.00023,1,0,5.4
1.267,2724732.729,-0.00588,0.00069,0.00023,1,0,5.4
1.29,2724732.748,-0.00038,0.00069,0.00023,1,0,5.4
1.305,2724732.767,0.0045,8e-05,0.00023,1,0,5.4
1.326,2724732.786,0.00512,8e-05,0.00023,1,0,5.4
1.344,2724732.805,0.00573,8e-05,0.00023,1,0,5.4
1.362,2724732.824,0.00145,8e-05,0.00023,1,0,5.4
1.381,2724732.843,-0.0016,0.00069,0.00023,1,0,5.4
1.401,2724732.862,-0.00527,-0.00053,0.00023,1,0,5.4
1.425,2724732.881,-0.00527,-0.00053,0.00023,1,0,5.4
1.438,2724732.9,-0.00405,-0.00053,0.00084,1,0,5.4
1.461,2724732.919,-0.00038,-0.00115,-0.00038,1,0,5.4
1.478,2724732.938,0.00206,-0.00176,0.00023,1,0,5.4
1.501,2724732.957,0.00328,-0.00176,0.00084,1,0,5.4
1.517,2724732.976,0.0045,-0.00053,0.00023,1,0,5.4
1.534,2724732.995,0.00145,8e-05,0.00023,1,0,5.4
1.554,2724733.014,-0.00038,0.0013,0.00023,1,0,5.4
1.577,2724733.033,-0.00344,8e-05,-0.00038,1,0,5.4
1.595,2724733.052,-0.00405,8e-05,-0.00038,1,0,5.4
1.61,2724733.071,-0.00283,-0.00115,0.00023,1,0,5.4
1.633,2724733.09,-0.00099,0.00069,-0.00038,1,0,5.4
1.647,2724733.109,0.00145,0.0013,-0.00038,1,0,5.4
1.669,2724733.128,0.00206,8e-05,-0.00038,1,0,5.4
1.689,2724733.147,0.00206,0.00374,0.00023,1,0,5.4
1.707,2724733.166,0.00084,0.0013,0.00084,1,0,5.4
1.728,2724733.185,-0.00344,0.00557,0.00023,1,0,5.4
1.743,2724733.204,-0.00649,-0.00298,0.00023,1,0,5.4
1.76,2724733.223,-0.00649,-0.00298,0.00328,1,0,5.4
1.781,2724733.242,-0.00405,-0.00909,0.00389,1,0,5.4
1.8,2724733.261,0.00267,0.0013,-0.0016,1,0,5.4
1.822,2724733.28,0.00817,0.00374,-0.00405,1,0,5.4
1.837,2724733.299,0.00939,0.00496,-0.0016,1,0,5.4
1.858,2724733.318,0.00634,-0.00115,0.00206,1,0,5.4
1.877,2724733.337,-0.00283,-0.00115,0.00084,1,0,5.4
1.9,2724733.356,-0.00832,0.0013,-0.00283,1,0,5.4
1.916,2724733.375,-0.01138,0.00191,-0.00099,1,0,5.4
1.934,2724733.394,-0.0071,-0.00237,0.00328,1,0,5.4
1.956,2724733.413,0.00023,-0.00298,0.00267,1,0,5.4
1.972,2724733.432,0.00695,0.0013,-0.00221,1,0,5.4
1.994,2724733.451,0.00817,0.0068,-0.00527,1,0,5.4
2.014,2724733.47,0.00512,0.00863,-0.00283,1,0,5.4
2.03,2724733.489,-0.00038,0.00191,-0.00099,1,0,5.4
2.047,2724733.508,-0.00527,0.01596,-0.01077,1,0,5.4
2.085,2724733.527,-0.00893,0.01351,-0.00649,1,0,5.4
2.089,2724733.546,-0.0126,0.00069,0.00939,1,0,5.4
2.104,2724733.565,-0.01138,-0.0097,0.01917,1,0,5.4
2.124,2724733.584,-0.0071,0.01168,0.01489,1,0,5.4
2.143,2724733.603,-0.0016,0.01535,0.01306,1,0,5.4
2.16,2724733.622,0.00084,0.01657,0.02894,1,0,5.4
2.181,2724733.642,-0.00221,0.00374,0.05704,1,0,5.4
2.199,2724733.661,-0.00588,-0.0042,0.08208,1,0,5.4
2.218,2724733.68,-0.00832,-0.01764,0.08941,1,0,5.4
2.238,2724733.699,-0.00099,-0.00359,0.07842,1,0,5.4
2.257,2724733.718,0.00634,0.01535,0.05948,1,0,5.4
2.277,2724733.737,0.00878,0.00069,0.04116,1,0,5.4
2.296,2724733.756,0.0045,0.00618,0.03199,1,0,5.4
2.315,2724733.775,-0.00221,-0.00481,0.03566,1,0,5.4
2.332,2724733.794,-0.00832,-0.00603,0.03199,1,0,5.4
2.352,2724733.813,-0.00832,0.00069,0.01184,1,0,5.4
2.37,2724733.832,-0.00771,0.01107,-0.01382,1,0,5.4
2.395,2724733.851,-0.00527,0.00313,-0.03337,1,0,5.4
2.408,2724733.87,-0.00283,0.00557,-0.04436,1,0,5.4
2.429,2724733.889,0.00023,-0.00603,-0.05047,1,0,5.4
2.446,2724733.908,0.00389,8e-05,-0.05841,1,0,5.4
2.466,2724733.927,0.00939,-0.00115,-0.06208,1,0,5.4
2.485,2724733.946,0.01184,-0.00725,-0.0578,1,0,5.4
2.505,2724733.965,0.00817,8e-05,-0.05719,1,0,5.4
2.523,2724733.984,-0.00099,-0.00786,-0.06574,1,0,5.4
2.542,2724734.003,-0.00588,0.00985,-0.08468,1,0,5.4
2.559,2724734.022,-0.00588,-0.00053,-0.09995,1,0,5.4
2.58,2724734.041,-0.00038,-0.00603,-0.10484,1,0,5.4
2.598,2724734.06,0.0045,-0.01336,-0.09567,1,0,5.4
2.616,2724734.079,0.00817,0.00924,-0.07674,1,0,5.4
2.637,2724734.098,0.00512,0.00557,-0.0578,1,0,5.4
2.661,2724734.117,0.0045,0.00191,-0.0462,1,0,5.4
2.675,2724734.136,0.00023,-0.02375,-0.0407,1,0,5.4
2.695,2724734.155,0.00206,-0.01642,-0.04375,1,0,5.4
2.713,2724734.174,0.00573,0.00924,-0.04925,1,0,5.4
2.732,2724734.193,0.00939,0.00374,-0.05536,1,0,5.4
2.752,2724734.212,0.01,8e-05,-0.0688,1,0,5.4
2.771,2724734.231,0.00756,-0.00786,-0.0859,1,0,5.4
2.789,2724734.25,0.00267,-0.02069,-0.09201,1,0,5.4
2.808,2724734.269,-0.0016,0.0013,-0.08651,1,0,5.4
2.827,2724734.288,-0.00832,0.00252,-0.08773,1,0,5.4
2.846,2724734.307,-0.01443,-0.01458,-0.0914,1,0,5.4
2.864,2724734.326,-0.01626,-0.00786,-0.09201,1,0,5.4
2.885,2724734.345,-0.01138,0.03001,-0.07185,1,0,5.4
2.903,2724734.364,0.00023,-0.01336,-0.04009,1,0,5.4
2.923,2724734.383,0.01122,-0.01458,-0.0181,1,0,5.4
2.941,2724734.402,0.01611,8e-05,0.01306,1,0,5.4
2.959,2724734.421,0.01306,0.00557,0.05459,1,0,5.4
2.98,2724734.44,0.00634,0.01229,0.09308,1,0,5.4
3.0,2724734.459,-0.01077,-0.01336,0.13095,1,0,5.4
3.017,2724734.478,-0.02482,0.00435,0.17432,1,0,5.4
3.039,2724734.497,-0.03703,0.00496,0.23113,1,0,5.4
3.064,2724734.516,-0.03337,0.01413,0.2916,1,0,5.4
3.074,2724734.535,-0.02054,0.00191,0.33436,1,0,5.4
3.094,2724734.554,0.00267,0.00496,0.34108,1,0,5.4
3.114,2724734.574,0.02222,0.01596,0.31909,1,0,5.4
3.131,2724734.593,0.02833,-0.00481,0.27267,1,0,5.4
3.152,2724734.612,0.02527,0.01535,0.20914,1,0,5.4
3.17,2724734.631,0.00939,0.0068,0.15416,1,0,5.4
3.192,2724734.65,-0.00771,0.00435,0.10835,1,0,5.4
3.209,2724734.669,-0.01932,8e-05,0.06498,1,0,5.4
3.23,2724734.688,-0.01932,-0.00053,0.03077,1,0,5.4
3.246,2724734.707,-0.00832,0.00313,-0.0016,1,0,5.4
3.265,2724734.726,0.00634,0.00252,-0.03642,1,0,5.4
3.284,2724734.745,0.01733,-0.00053,-0.0578,1,0,5.4
3.303,2724734.764,0.01794,-0.00115,-0.06086,1,0,5.4
3.325,2724734.783,0.00878,0.00252,-0.05108,1,0,5.4
3.342,2724734.802,-0.01138,-0.00603,-0.03398,1,0,5.4
3.358,2724734.821,-0.02482,0.00252,-0.01993,1,0,5.4
3.379,2724734.84,-0.0297,0.0013,-0.0071,1,0,5.4
3.4,2724734.859,-0.01871,0.00863,-0.00221,1,0,5.4
3.418,2724734.878,-0.00038,-0.00298,-0.00832,1,0,5.4
3.437,2724734.897,0.01855,-0.00115,-0.01871,1,0,5.4
3.456,2724734.916,0.02772,-0.00298,-0.02298,1,0,5.4
3.475,2724734.935,0.02405,0.00252,-0.0242,1,0,5.4
3.497,2724734.954,0.00878,0.00191,-0.02176,1,0,5.4
3.513,2724734.973,-0.00832,0.00557,-0.01932,1,0,5.4
3.533,2724734.992,-0.01749,0.0013,-0.03153,1,0,5.4
3.551,2724735.011,-0.0126,-0.00725,-0.05719,1,0,5.4
3.57,2724735.03,-0.00466,-0.02497,-0.09506,1,0,5.4
3.592,2724735.049,0.00573,-0.00359,-0.12866,1,0,5.4
3.613,2724735.068,0.01245,0.01474,-0.13599,1,0,5.4
3.626,2724735.087,0.01245,-0.01458,-0.13049,1,0,5.4
3.646,2724735.106,0.00939,-0.00359,-0.13843,1,0,5.4
3.665,2724735.125,0.00512,-0.00176,-0.15065,1,0,5.4
3.688,2724735.144,-0.00283,-0.00786,-0.16103,1,0,5.4
3.704,2724735.163,-0.0071,0.00374,-0.16042,1,0,5.4
3.726,2724735.182,-0.01199,-0.00664,-0.14515,1,0,5.4
3.741,2724735.201,-0.01016,-0.00481,-0.12805,1,0,5.4
3.759,2724735.22,-0.0016,0.01107,-0.10606,1,0,5.4
3.781,2724735.239,0.00328,-0.01214,-0.07674,1,0,5.4
3.799,2724735.258,0.01367,-0.0042,-0.06024,1,0,5.4
3.818,2724735.277,0.01611,0.00924,-0.04314,1,0,5.4
3.836,2724735.296,0.0155,0.00374,-0.01565,1,0,5.4
3.857,2724735.315,0.0045,-0.0097,0.01061,1,0,5.4
3.875,2724735.334,-0.00099,0.00252,0.02466,1,0,5.4
3.895,2724735.353,-0.00588,0.00557,0.02711,1,0,5.4
3.914,2724735.372,-0.0071,-0.00176,0.03138,1,0,5.4
3.93,2724735.391,-0.00649,0.00191,0.04054,1,0,5.4
3.951,2724735.41,-0.00527,0.00863,0.05215,1,0,5.4
3.969,2724735.429,-0.00344,-0.00115,0.05826,1,0,5.4
3.992,2724735.448,0.00023,-0.00237,0.05582,1,0,5.4
4.01,2724735.467,0.00756,0.00313,0.05215,1,0,5.4
4.03,2724735.486,0.00817,0.00069,0.04604,1,0,5.4
4.044,2724735.506,0.00206,-0.00664,0.03993,1,0,5.4
4.064,2724735.525,-0.00954,-0.00053,0.03688,1,0,5.4
4.084,2724735.544,-0.01871,0.00252,0.03138,1,0,5.4
4.102,2724735.563,-0.01749,8e-05,0.01917,1,0,5.4
4.121,2724735.582,-0.00527,-0.00053,-0.00466,1,0,5.4
4.14,2724735.601,0.01306,0.00313,-0.02482,1,0,5.4
4.159,2724735.62,0.02344,-0.00053,-0.03642,1,0,5.4
4.177,2724735.639,0.02039,8e-05,-0.04375,1,0,5.4
4.196,2724735.658,0.0045,-0.00237,-0.04436,1,0,5.4
4.216,2724735.677,-0.0126,-0.00481,-0.0407,1,0,5.4
4.237,2724735.696,-0.02298,-0.00115,-0.03764,1,0,5.4
4.256,2724735.715,-0.02054,-0.00542,-0.03153,1,0,5.4
4.277,2724735.734,-0.00893,-0.0042,-0.02298,1,0,5.4
4.297,2724735.753,0.0045,-0.00359,-0.01443,1,0,5.4
4.315,2724735.772,0.01184,-0.00115,-0.00527,1,0,5.4
4.334,2724735.791,0.01367,-0.00053,0.00023,1,0,5.4
4.348,2724735.81,0.01,0.00069,0.00267,1,0,5.4
4.37,2724735.829,0.00267,8e-05,0.00206,1,0,5.4
4.387,2724735.848,-0.00405,-0.00115,0.00023,1,0,5.4
4.407,2724735.867,-0.01077,-0.00115,-0.00038,1,0,5.4
4.425,2724735.886,-0.01138,-0.00053,0.00084,1,0,5.4
4.444,2724735.905,-0.00771,0.0013,0.00206,1,0,5.4
4.466,2724735.924,0.00084,0.0013,0.00023,1,0,5.4
4.483,2724735.943,0.00817,8e-05,-0.00099,1,0,5.4
4.502,2724735.962,0.01061,-0.00053,-0.00099,1,0,5.4
4.524,2724735.981,0.00634,-0.00115,-0.00038,1,0,5.4
4.539,2724736.0,0.00084,8e-05,0.00084,1,0,5.4
4.558,2724736.019,-0.00466,8e-05,0.00084,1,0,5.4
4.582,2724736.038,-0.0071,0.00069,0.00023,1,0,5.4
4.601,2724736.057,-0.00588,8e-05,-0.00038,1,0,5.4
4.613,2724736.076,-0.00344,-0.00053,0.00023,1,0,5.4
4.636,2724736.095,0.00084,8e-05,0.00023,1,0,5.4
4.653,2724736.114,0.00389,-0.00053,0.00023,1,0,5.4
4.675,2724736.133,0.00573,8e-05,0.00023,1,0,5.4
4.694,2724736.152,0.0045,-0.00115,-0.00038,1,0,5.4
4.715,2724736.171,0.00145,8e-05,-0.00038,1,0,5.4
4.732,2724736.19,-0.00283,8e-05,-0.00038,1,0,5.4
4.748,2724736.209,-0.00466,8e-05,0.00023,1,0,5.4
4.767,2724736.228,-0.00344,8e-05,0.00023,1,0,5.4
4.79,2724736.247,-0.0016,-0.00053,-0.00038,1,0,5.4
4.806,2724736.266,0.00206,8e-05,-0.00038,1,0,5.4
4.826,2724736.285,0.00328,-0.00053,0.00023,1,0,5.4
4.844,2724736.304,0.00328,-0.00115,0.00084,1,0,5.4
4.869,2724736.323,0.00145,8e-05,0.00023,1,0,5.4
4.882,2724736.342,0.00023,-0.00053,0.00023,1,0,5.4
4.901,2724736.361,-0.0016,-0.00053,0.00023,1,0,5.4
4.922,2724736.38,-0.00283,-0.00115,-0.00038,1,0,5.4
4.938,2724736.399,-0.00221,-0.00115,-0.00038,1,0,5.4
4.957,2724736.418,-0.00099,-0.00115,0.00023,1,0,5.4
4.982,2724736.437,0.00206,-0.00053,0.00023,1,0,5.4
5.001,2724736.457,0.00206,8e-05,0.00023,1,0,5.4
5.016,2724736.476,0.00267,8e-05,-0.00038,1,0,5.4
5.035,2724736.495,-0.00038,-0.00053,0.00023,1,0,5.4
5.054,2724736.514,-0.00099,8e-05,0.00084,1,0,5.4
5.085,2724736.533,-0.00221,8e-05,0.00084,1,0,5.4
5.096,2724736.552,-0.00099,-0.00053,0.00145,1,0,5.4
5.109,2724736.571,-0.00038,-0.00053,0.00023,1,0,5.4
5.129,2724736.59,0.00084,8e-05,0.00023,1,0,5.4
5.147,2724736.609,0.00145,8e-05,0.00023,1,0,5.4
5.168,2724736.628,0.00084,8e-05,0.00023,1,0,5.4
5.186,2724736.647,0.00084,-0.00053,0.00023,1,0,5.4
5.21,2724736.666,-0.00099,-0.00053,0.00023,1,0,5.4
5.224,2724736.685,-0.00038,8e-05,0.00023,1,0,5.4
5.242,2724736.704,-0.00099,8e-05,-0.00038,1,0,5.4
5.26,2724736.723,-0.00099,0.00069,-0.00038,1,0,5.4
5.282,2724736.742,0.00023,8e-05,-0.00038,1,0,5.4
5.302,2724736.761,-0.00038,-0.00053,-0.00038,1,0,5.4
5.319,2724736.78,0.00084,-0.00053,0.00023,1,0,5.4
5.338,2724736.799,0.00023,8e-05,0.00084,1,0,5.4
5.358,2724736.818,0.00023,8e-05,-0.00038,1,0,5.4
5.38,2724736.837,-0.00099,8e-05,0.00023,1,0,5.4
5.4,2724736.856,-0.00038,8e-05,0.00023,1,0,5.4
5.421,2724736.875,-0.00099,-0.00053,0.00023,1,0,5.4
5.433,2724736.894,-0.00099,8e-05,0.00023,1,0,5.4
5.453,2724736.913,-0.00038,8e-05,0.00084,1,0,5.4
5.472,2724736.932,0.00023,8e-05,0.00023,1,0,5.4
5.491,2724736.951,0.00084,8e-05,0.00023,1,0,5.4
5.51,2724736.97,0.00023,8e-05,-0.00038,1,0,5.4
5.53,2724736.989,0.00023,8e-05,-0.00038,1,0,5.4
5.547,2724737.008,-0.00099,-0.00053,-0.00038,1,0,5.4
5.567,2724737.027,0.00023,8e-05,0.00084,1,0,5.4
5.589,2724737.046,-0.00038,8e-05,0.00023,1,0,5.4
5.605,2724737.065,0.00145,8e-05,0.00023,1,0,5.4
5.628,2724737.084,0.00023,8e-05,0.00023,1,0,5.4
5.643,2724737.103,0.00084,8e-05,0.00023,1,0,5.4
5.661,2724737.122,0.00084,8e-05,-0.00038,1,0,5.4
5.683,2724737.141,0.00023,8e-05,0.00023,1,0,5.4
5.699,2724737.16,-0.00038,8e-05,0.00023,1,0,5.4
5.718,2724737.179,-0.00038,-0.00053,0.00023,1,0,5.4
5.738,2724737.198,-0.00038,-0.00053,0.00084,1,0,5.4
5.761,2724737.217,-0.00099,8e-05,0.00023,1,0,5.4
5.781,2724737.236,0.00084,8e-05,-0.00038,1,0,5.4
5.797,2724737.255,0.00023,8e-05,0.00023,1,0,5.4
5.814,2724737.274,0.00084,8e-05,0.00023,1,0,5.4
5.832,2724737.293,-0.00038,-0.00053,0.00023,1,0,5.4
5.853,2724737.312,-0.00038,8e-05,0.00023,1,0,5.4
5.875,2724737.331,0.00023,0.00069,0.00023,1,0,5.4
5.895,2724737.35,0.00023,8e-05,0.00084,1,0,5.4
5.913,2724737.369,0.00023,8e-05,0.00084,1,0,5.4
5.932,2724737.389,-0.00038,8e-05,0.00023,1,0,5.4
5.946,2724737.408,0.00084,-0.00053,0.00023,1,0,5.4
5.965,2724737.427,-0.00038,-0.00053,0.00023,1,0,5.4
5.989,2724737.446,0.00084,8e-05,0.00023,1,0,5.4
6.007,2724737.465,-0.00038,-0.00053,-0.00038,1,0,5.4
6.024,2724737.484,0.00023,0.00069,0.00023,1,0,5.4
6.041,2724737.503,-0.00038,8e-05,0.00023,1,0,5.4
6.061,2724737.522,0.00023,8e-05,0.00023,1,0,5.4
6.08,2724737.541,0.00084,8e-05,0.00023,1,0,5.4
6.099,2724737.56,-0.00038,8e-05,0.00023,1,0,5.4
6.117,2724737.579,0.00023,0.00069,0.00084,1,0,5.4
6.138,2724737.598,-0.00038,-0.00053,0.00084,1,0,5.4
6.157,2724737.617,0.00084,8e-05,-0.00038,1,0,5.4
6.175,2724737.636,-0.00038,-0.00053,0.00023,1,0,5.4
6.195,2724737.655,-0.00038,8e-05,-0.00038,1,0,5.4
6.212,2724737.674,-0.00038,8e-05,-0.00038,1,0,5.4
6.234,2724737.693,0.00023,8e-05,-0.00038,1,0,5.4
6.251,2724737.712,0.00023,8e-05,-0.00038,1,0,5.4
6.273,2724737.731,-0.00038,8e-05,-0.00038,1,0,5.4
6.294,2724737.75,0.00084,0.00069,-0.00038,1,0,5.4
6.308,2724737.769,0.00023,0.00069,-0.00038,1,0,5.4
6.33,2724737.788,0.00084,8e-05,0.00023,1,0,5.4
6.346,2724737.807,-0.00099,8e-05,0.00023,1,0,5.4
6.365,2724737.826,-0.00038,8e-05,0.00023,1,0,5.4
6.388,2724737.845,-0.00038,8e-05,0.00023,1,0,5.4
6.404,2724737.864,0.00023,8e-05,-0.00038,1,0,5.4
6.426,2724737.883,-0.00038,8e-05,0.00023,1,0,5.4
6.441,2724737.902,0.00023,8e-05,-0.00038,1,0,5.4
6.459,2724737.921,0.00023,8e-05,-0.00038,1,0,5.4
6.477,2724737.94,-0.00038,-0.00053,0.00023,1,0,5.4
6.501,2724737.959,0.00084,8e-05,0.00023,1,0,5.4
6.518,2724737.978,-0.00099,8e-05,0.00084,1,0,5.4
6.538,2724737.997,-0.00038,8e-05,0.00084,1,0,5.4
6.56,2724738.016,-0.00038,8e-05,-0.00038,1,0,5.4
6.575,2724738.035,0.00084,-0.00053,-0.00038,1,0,5.4
6.597,2724738.054,0.00023,-0.00053,0.00023,1,0,5.4
6.616,2724738.073,0.00023,-0.00053,0.00023,1,0,5.4
6.631,2724738.092,0.00023,-0.00053,-0.00038,1,0,5.4
6.651,2724738.111,0.00023,8e-05,0.00023,1,0,5.4
6.669,2724738.13,0.00023,8e-05,0.00084,1,0,5.4
6.689,2724738.149,0.00023,8e-05,0.00023,1,0,5.4
6.71,2724738.168,0.00084,8e-05,0.00023,1,0,5.4
6.73,2724738.187,-0.00038,8e-05,0.00023,1,0,5.4
6.745,2724738.206,0.00023,8e-05,0.00023,1,0,5.4
6.765,2724738.225,0.00023,8e-05,0.00023,1,0,5.4
6.784,2724738.244,0.00023,-0.00053,0.00023,1,0,5.4
6.804,2724738.263,0.00023,8e-05,0.00023,1,0,5.4
6.826,2724738.282,0.00084,8e-05,0.00023,1,0,5.4
6.841,2724738.301,0.00023,0.00069,0.00023,1,0,5.4
6.858,2724738.321,-0.00038,0.00069,0.00023,1,0,5.4
6.878,2724738.34,0.00023,-0.00053,0.00023,1,0,5.4
6.9,2724738.359,-0.00038,-0.00053,0.00023,1,0,5.4
6.917,2724738.378,0.00023,-0.00053,0.00023,1,0,5.4
6.94,2724738.397,-0.00099,8e-05,-0.00038,1,0,5.4
6.955,2724738.416,0.00084,8e-05,-0.00038,1,0,5.4
6.977,2724738.435,0.00023,-0.00053,-0.00038,1,0,5.4
6.998,2724738.454,0.00023,-0.00053,0.00023,1,0,5.4
7.013,2724738.473,-0.00038,8e-05,0.00023,1,0,5.4
7.032,2724738.492,0.00023,8e-05,0.00023,1,0,5.4
7.051,2724738.511,0.00084,8e-05,0.00023,1,0,5.4
7.081,2724738.53,-0.00038,8e-05,0.00023,1,0,5.4
7.092,2724738.549,0.00023,8e-05,0.00023,1,0,5.4
7.107,2724738.568,-0.00099,-0.00053,0.00023,1,0,5.4
7.126,2724738.587,0.00023,-0.00053,0.00023,1,0,5.4
7.145,2724738.606,0.00023,-0.00053,0.00023,1,0,5.4
7.163,2724738.625,0.00084,-0.00053,0.00023,1,0,5.4
7.183,2724738.644,0.00023,8e-05,-0.00038,1,0,5.4
7.201,2724738.663,-0.00038,8e-05,-0.00038,1,0,5.4
7.222,2724738.682,0.00084,8e-05,0.00023,1,0,5.4
7.239,2724738.701,0.00023,8e-05,0.00084,1,0,5.4
7.262,2724738.72,0.00084,-0.00053,0.00023,1,0,5.4
7.281,2724738.739,-0.00038,-0.00053,-0.00038,1,0,5.4
7.301,2724738.758,0.00084,8e-05,0.00023,1,0,5.4
7.315,2724738.777,0.00023,8e-05,0.00023,1,0,5.4
7.336,2724738.796,0.00023,8e-05,-0.00038,1,0,5.4
7.355,2724738.815,0.00023,8e-05,0.00023,1,0,5.4
7.377,2724738.834,0.00084,8e-05,0.00023,1,0,5.4
7.396,2724738.853,0.00023,8e-05,0.00023,1,0,5.4
7.416,2724738.872,0.00023,8e-05,0.00023,1,0,5.4
7.429,2724738.891,-0.00038,8e-05,0.00023,1,0,5.4
7.449,2724738.91,-0.00038,0.00069,0.00023,1,0,5.4
7.469,2724738.929,0.00069,0.00023,8e-05,1,0,5.4
7.488,2724738.948,-0.00115,0.00023,0.00069,1,0,5.4
7.511,2724738.967,8e-05,0.00023,0.00069,1,0,5.4
7.528,2724738.986,-0.00053,0.00023,8e-05,1,0,5.4
7.545,2724739.005,0.00069,0.00023,-0.00053,1,0,5.4
7.565,2724739.024,0.00069,0.00023,-0.00053,1,0,5.4
7.583,2724739.043,0.00069,-0.00038,-0.00053,1,0,5.4
7.603,2724739.062,8e-05,-0.00038,-0.00053,1,0,5.4
7.621,2724739.081,-0.00053,0.00015,-0.00053,1,0,5.4
7.64,2724739.1,-0.00053,-0.00046,8e-05,1,0,5.4
7.66,2724739.119,-0.00053,-0.00046,8e-05,1,0,5.4
7.68,2724739.138,0.00069,0.00015,8e-05,1,0,5.4
7.701,2724739.157,-0.00053,0.00015,8e-05,1,0,5.4
7.717,2724739.176,8e-05,0.00015,0.00069,1,0,5.4
7.735,2724739.195,-0.00061,0.00015,-0.00053,1,0,5.4
7.757,2724739.214,-0.00061,0.00015,8e-05,1,0,5.4
7.778,2724739.233,0.0,-0.00046,8e-05,1,0,5.4
7.792,2724739.253,0.0,0.00015,8e-05,1,0,5.4
7.811,2724739.272,-0.00061,0.00015,8e-05,1,0,5.4
7.833,2724739.291,-0.00061,-0.00046,8e-05,1,0,5.4
7.848,2724739.31,0.00061,0.00015,8e-05,1,0,5.4
7.87,2724739.329,-0.00061,0.00015,8e-05,1,0,5.4
7.89,2724739.348,8e-05,0.00015,-0.00053,1,0,5.4
7.905,2724739.367,-0.00053,0.00015,-0.00053,1,0,5.4
7.928,2724739.386,8e-05,0.00015,8e-05,1,0,5.4
7.945,2724739.405,8e-05,0.00015,8e-05,1,0,5.4
7.962,2724739.424,-0.00053,0.00076,8e-05,1,0,5.4
7.982,2724739.443,-0.00053,0.00015,8e-05,1,0,5.4
8.002,2724739.462,-0.00053,0.00015,8e-05,1,0,5.4
8.019,2724739.481,8e-05,0.00015,8e-05,1,0,5.4
8.038,2724739.5,-0.00053,0.00015,8e-05,1,0,5.4
8.061,2724739.519,8e-05,0.00015,-0.00053,1,0,5.4
8.08,2724739.538,-0.00046,0.00015,-0.00053,1,0,5.4
8.097,2724739.557,0.00015,0.00015,0.00069,1,0,5.4
8.113,2724739.576,-0.00107,-0.00046,0.00069,1,0,5.4
8.134,2724739.595,0.00015,8e-05,0.00069,1,0,5.4
8.153,2724739.614,-0.00046,-0.00053,0.00069,1,0,5.4
8.172,2724739.633,0.00015,8e-05,8e-05,1,0,5.4
8.191,2724739.652,0.00015,8e-05,8e-05,1,0,5.4
8.215,2724739.671,-0.00038,-0.00053,8e-05,1,0,5.4
8.231,2724739.69,0.00084,8e-05,8e-05,1,0,5.4
8.248,2724739.709,-0.00038,-0.00053,8e-05,1,0,5.4
8.268,2724739.728,0.00023,8e-05,8e-05,1,0,5.4
8.29,2724739.747,-0.00038,8e-05,-0.00053,1,0,5.4
8.307,2724739.766,0.00023,8e-05,8e-05,1,0,5.4
8.325,2724739.785,-0.00038,8e-05,8e-05,1,0,5.4
8.343,2724739.804,0.00023,-0.00053,8e-05,1,0,5.4
8.362,2724739.823,-0.00031,8e-05,8e-05,1,0,5.4
8.382,2724739.842,-0.00031,8e-05,8e-05,1,0,5.4
8.402,2724739.861,-0.00031,8e-05,8e-05,1,0,5.4
8.418,2724739.88,-0.00031,-0.00053,8e-05,1,0,5.4
8.437,2724739.899,0.00092,8e-05,8e-05,1,0,5.4
8.458,2724739.918,-0.00031,8e-05,8e-05,1,0,5.4
8.477,2724739.937,0.00092,8e-05,0.0,1,0,5.4
8.497,2724739.956,-0.00031,8e-05,0.00061,1,0,5.4
8.516,2724739.975,0.00092,8e-05,0.0,1,0,5.4
8.534,2724739.994,0.00031,-0.00053,0.0,1,0,5.4
8.553,2724740.013,-0.00092,8e-05,-0.00061,1,0,5.4
8.572,2724740.032,0.00031,8e-05,0.0,1,0,5.4
8.594,2724740.051,-0.00031,8e-05,0.00061,1,0,5.4
8.615,2724740.07,0.00031,8e-05,-0.0,1,0,5.4
8.633,2724740.089,-0.00031,8e-05,-0.0,1,0,5.4
8.647,2724740.108,0.00092,8e-05,-0.0,1,0,5.4
8.667,2724740.127,-0.00031,0.00015,-0.00061,1,0,5.4
8.689,2724740.146,0.00031,0.00015,-0.0,1,0,5.4
8.706,2724740.165,-0.00031,0.00015,-0.0,1,0,5.4
8.725,2724740.185,-0.00031,0.00015,-0.00061,1,0,5.4
8.743,2724740.204,0.00031,0.00015,-0.00061,1,0,5.4
8.76,2724740.223,-0.00031,0.00015,-0.00061,1,0,5.4
8.781,2724740.242,-0.00031,0.00015,-0.0,1,0,5.4
8.8,2724740.261,-0.00031,-0.00046,-0.0,1,0,5.4
8.819,2724740.28,0.00031,0.00015,-0.0,1,0,5.4
8.838,2724740.299,-0.00031,0.00015,-0.0,1,0,5.4
8.862,2724740.318,0.00031,0.00015,-0.0,1,0,5.4
8.876,2724740.337,-0.00031,0.00015,-0.00061,1,0,5.4
8.896,2724740.356,0.00031,0.00015,-0.00061,1,0,5.4
8.913,2724740.375,0.00031,-0.00046,0.0,1,0,5.4
8.933,2724740.394,0.00031,8e-05,0.0,1,0,5.4
8.952,2724740.413,0.00092,8e-05,0.00061,1,0,5.4
8.971,2724740.432,-0.00031,8e-05,0.0,1,0,5.4
8.994,2724740.451,0.00031,-0.00053,-0.00061,1,0,5.4
9.009,2724740.47,-0.00031,-0.00053,-0.00061,1,0,5.4
9.028,2724740.489,0.00084,8e-05,8e-05,1,0,5.4
9.047,2724740.508,0.00023,-0.00053,0.00069,1,0,5.4
9.068,2724740.527,0.00084,8e-05,8e-05,1,0,5.4
9.084,2724740.546,-0.00038,8e-05,8e-05,1,0,5.4
9.103,2724740.565,0.00023,8e-05,0.00069,1,0,5.4
9.124,2724740.584,0.00023,8e-05,8e-05,1,0,5.4
9.142,2724740.603,-0.00038,8e-05,-0.00053,1,0,5.4
9.16,2724740.622,0.00023,8e-05,8e-05,1,0,5.4
9.18,2724740.641,0.00023,-0.00053,8e-05,1,0,5.4
9.199,2724740.66,0.00023,8e-05,8e-05,1,0,5.4
9.216,2724740.679,-0.00038,8e-05,8e-05,1,0,5.4
9.238,2724740.698,0.00084,8e-05,0.00069,1,0,5.4
9.263,2724740.717,-0.00038,-0.00053,0.00076,1,0,5.4
9.28,2724740.736,0.00084,-0.00053,0.00015,1,0,5.4
9.298,2724740.755,-0.00038,-0.00053,0.00015,1,0,5.4
9.314,2724740.774,0.00023,8e-05,0.00015,1,0,5.4
9.335,2724740.793,0.00023,8e-05,0.00015,1,0,5.4
9.354,2724740.812,0.00023,-0.00053,8e-05,1,0,5.4
9.37,2724740.831,0.00023,-0.00046,8e-05,1,0,5.4
9.39,2724740.85,-0.00107,-0.00046,8e-05,1,0,5.4
9.409,2724740.869,0.00076,-0.00046,-0.00053,1,0,5.4
9.428,2724740.888,-0.00107,0.00015,-0.00053,1,0,5.4
9.446,2724740.907,0.00015,0.00015,-0.00053,1,0,5.4
9.466,2724740.926,-0.00046,-0.00046,8e-05,1,0,5.4
9.485,2724740.945,0.00015,-0.00046,8e-05,1,0,5.4
9.508,2724740.964,-0.00046,0.00015,8e-05,1,0,5.4
9.526,2724740.983,-0.00046,-0.00046,0.00069,1,0,5.4
9.541,2724741.002,0.00076,-0.00046,8e-05,1,0,5.4
9.559,2724741.021,-0.00046,0.00015,0.00069,1,0,5.4
9.579,2724741.04,0.00076,0.00023,0.0,1,0,5.4
9.601,2724741.059,-0.00046,0.00023,0.0,1,0,5.4
9.617,2724741.078,0.00076,0.00023,0.0,1,0,5.4
9.638,2724741.097,0.00015,0.00023,0.0,1,0,5.4
9.657,2724741.117,0.00076,0.00084,0.0,1,0,5.4
9.679,2724741.136,-0.00046,0.00023,0.0,1,0,5.4
9.696,2724741.155,0.00015,0.00023,0.0,1,0,5.4
9.717,2724741.174,-0.00046,0.00023,0.0,1,0,5.4
9.735,2724741.193,-0.00046,0.00023,0.0,1,0,5.4
9.751,2724741.212,0.00015,0.00023,-0.0,1,0,5.4
9.773,2724741.231,-0.00046,-0.00038,-0.00061,1,0,5.4
9.792,2724741.25,0.00015,-0.00038,-0.0,1,0,5.4
9.811,2724741.269,0.00015,-0.00038,-0.0,1,0,5.4
9.831,2724741.288,0.00076,0.00023,-0.0,1,0,5.4
9.848,2724741.307,-0.00107,-0.00038,-0.0,1,0,5.4
9.865,2724741.326,0.00076,-0.00038,-0.0,1,0,5.4
9.885,2724741.345,0.00076,0.00023,-0.0,1,0,5.4
9.904,2724741.364,0.00076,-0.00038,0.00061,1,0,5.4
9.926,2724741.383,0.00015,0.00023,0.00061,1,0,5.4
9.941,2724741.402,-0.00046,-0.00038,0.0,1,0,5.4
9.96,2724741.421,0.00076,-0.00038,0.0,1,0,5.4
9.978,2724741.44,-0.00046,-0.00038,0.0,1,0,5.4
9.999,2724741.459,0.00015,0.00023,-0.00061,1,0,5.4
10.018,2724741.478,-0.00046,0.00023,0.0,1,0,5.4
10.037,2724741.497,-0.00046,0.00023,0.0,1,0,5.4
10.06,2724741.516,0.00015,-0.00038,-0.0,1,0,5.4
10.081,2724741.535,0.00015,0.00023,-0.00061,1,0,5.4
10.095,2724741.554,0.00015,0.00023,-0.00061,1,0,5.4
10.114,2724741.573,0.00015,0.00023,-0.00061,1,0,5.4
10.13,2724741.592,0.00076,0.00023,-0.0,1,0,5.4
10.151,2724741.611,-0.00046,0.00023,-0.0,1,0,5.4
10.17,2724741.63,0.00137,0.00023,-0.0,1,0,5.4
10.188,2724741.649,-0.00053,0.00023,-0.0,1,0,5.4
10.208,2724741.668,8e-05,0.00023,-0.0,1,0,5.4
10.226,2724741.687,-0.00053,-0.00038,0.0,1,0,5.4
10.245,2724741.706,8e-05,0.00023,0.0,1,0,5.4
10.265,2724741.725,-0.00053,0.00023,-0.00061,1,0,5.4
10.284,2724741.744,0.00069,0.00023,-0.00061,1,0,5.4
10.303,2724741.763,8e-05,0.00023,0.0,1,0,5.4
10.321,2724741.782,-0.00053,-0.00038,0.0,1,0,5.4
10.341,2724741.801,8e-05,0.00023,0.0,1,0,5.4
10.361,2724741.82,-0.00053,-0.00038,0.0,1,0,5.4
10.382,2724741.839,8e-05,0.00023,-0.00061,1,0,5.4
10.399,2724741.858,-0.00053,-0.00038,8e-05,1,0,5.4
10.418,2724741.877,-0.00053,0.00023,-0.00053,1,0,5.4
10.438,2724741.896,-0.00053,0.00023,-0.00053,1,0,5.4
10.457,2724741.915,0.00069,0.00023,8e-05,1,0,5.4
10.474,2724741.934,8e-05,0.00023,8e-05,1,0,5.4
10.493,2724741.953,-0.00053,0.00084,8e-05,1,0,5.4
10.515,2724741.972,8e-05,0.00023,8e-05,1,0,5.4
10.533,2724741.991,-0.00053,-0.00038,0.00069,1,0,5.4
10.55,2724742.01,0.00069,0.00023,8e-05,1,0,5.4
10.569,2724742.029,-0.00053,-0.00038,-0.00053,1,0,5.4
10.592,2724742.049,0.0013,0.00015,0.00015,1,0,5.4
10.607,2724742.068,8e-05,0.00015,0.00076,1,0,5.4
10.625,2724742.087,8e-05,0.00015,0.00015,1,0,5.4
10.645,2724742.106,8e-05,0.00015,0.00076,1,0,5.4
10.663,2724742.125,8e-05,0.00015,0.00015,1,0,5.4
10.683,2724742.144,0.00069,0.00015,-0.00046,1,0,5.4
10.703,2724742.163,8e-05,0.00015,-0.00046,1,0,5.4
10.725,2724742.182,0.00069,-0.00046,-0.00046,1,0,5.4
10.741,2724742.201,8e-05,-0.00046,-0.00046,1,0,5.4
10.762,2724742.22,0.00069,0.00015,0.00015,1,0,5.4
10.779,2724742.239,-0.00053,0.00015,0.00015,1,0,5.4
10.802,2724742.258,8e-05,0.00015,0.00015,1,0,5.4
10.816,2724742.277,8e-05,0.00015,0.00015,1,0,5.4
10.836,2724742.296,8e-05,-0.00046,0.00076,1,0,5.4
10.859,2724742.315,0.00069,-0.00046,0.00015,1,0,5.4
10.878,2724742.334,8e-05,0.00015,0.00015,1,0,5.4
10.895,2724742.353,-0.00053,0.00015,0.00015,1,0,5.4
10.912,2724742.372,-0.00053,0.00015,-0.00046,1,0,5.4
10.932,2724742.391,0.00069,0.00015,-0.00046,1,0,5.4
10.949,2724742.41,-0.00115,0.00015,0.00015,1,0,5.4
10.968,2724742.429,8e-05,0.00015,0.00015,1,0,5.4
10.987,2724742.448,-0.00053,0.00015,0.00015,1,0,5.4
11.006,2724742.467,0.00069,0.00015,0.00015,1,0,5.4
11.029,2724742.486,8e-05,-0.00046,0.00069,1,0,5.4
11.05,2724742.505,8e-05,0.00015,-0.00053,1,0,5.4
11.079,2724742.524,0.0,0.00015,-0.00053,1,0,5.4
11.082,2724742.543,-0.00122,0.00015,-0.00053,1,0,5.4
11.101,2724742.562,0.0,0.00015,-0.00053,1,0,5.4
11.119,2724742.581,-0.00061,-0.00046,-0.00053,1,0,5.4
11.139,2724742.6,0.00061,0.00015,8e-05,1,0,5.4
11.158,2724742.619,-0.00122,0.00015,8e-05,1,0,5.4
11.178,2724742.638,0.0,0.00015,8e-05,1,0,5.4
11.201,2724742.657,0.0,0.00015,8e-05,1,0,5.4
11.217,2724742.676,-0.00061,-0.00046,-0.00053,1,0,5.4
11.234,2724742.695,0.0,0.00015,8e-05,1,0,5.4
11.256,2724742.714,0.0,-0.00046,8e-05,1,0,5.4
11.276,2724742.733,0.0,0.00015,-0.00046,1,0,5.4
11.296,2724742.752,0.0,0.00015,0.00015,1,0,5.4
11.312,2724742.771,0.00061,0.00015,0.00015,1,0,5.4
11.331,2724742.79,-0.00053,0.00015,0.00015,1,0,5.4
11.349,2724742.809,8e-05,-0.00046,-0.00046,1,0,5.4
11.368,2724742.828,-0.00053,0.00015,0.00015,1,0,5.4
11.391,2724742.847,-0.00053,0.00015,-0.00046,1,0,5.4
11.407,2724742.866,-0.00053,0.00015,0.00015,1,0,5.4
11.427,2724742.885,8e-05,0.00015,0.00076,1,0,5.4
11.444,2724742.904,-0.00053,0.00015,0.00015,1,0,5.4
11.462,2724742.923,-0.00053,0.00015,0.00015,1,0,5.4
11.482,2724742.942,0.00015,0.00015,0.00015,1,0,5.4
11.501,2724742.961,-0.00046,0.00015,0.00015,1,0,5.4
11.519,2724742.981,-0.00046,-0.00046,0.00015,1,0,5.4
11.537,2724743.0,-0.00107,0.00015,0.00015,1,0,5.4
11.559,2724743.019,0.00076,0.00015,0.00076,1,0,5.4
11.577,2724743.038,0.00015,0.00015,0.00076,1,0,5.4
11.6,2724743.057,0.00076,0.00015,0.00015,1,0,5.4
11.615,2724743.076,0.00015,-0.00046,0.00076,1,0,5.4
11.633,2724743.095,-0.00038,0.00015,0.00015,1,0,5.4
11.654,2724743.114,0.00023,0.00015,-0.00046,1,0,5.4
11.675,2724743.133,-0.00038,0.00015,0.00015,1,0,5.4
11.695,2724743.152,0.00084,-0.00046,0.00015,1,0,5.4
11.71,2724743.171,0.00023,-0.00046,0.00015,1,0,5.4
11.733,2724743.19,0.00023,-0.00046,0.00015,1,0,5.4
11.747,2724743.209,0.00084,0.00015,-0.00046,1,0,5.4
11.767,2724743.228,0.00145,0.00015,0.00015,1,0,5.4
11.79,2724743.247,0.00023,0.00015,-0.00046,1,0,5.4
11.809,2724743.266,-0.00038,0.00015,-0.00115,1,0,5.4
11.828,2724743.285,0.00023,-0.00046,8e-05,1,0,5.4
11.843,2724743.304,0.00023,-0.00046,8e-05,1,0,5.4
11.863,2724743.323,0.00023,0.00015,8e-05,1,0,5.4
11.88,2724743.342,-0.00038,0.00015,8e-05,1,0,5.4
11.901,2724743.361,0.00023,0.00076,8e-05,1,0,5.4
11.919,2724743.38,-0.00038,0.00015,8e-05,1,0,5.4
11.942,2724743.399,0.00084,0.00015,8e-05,1,0,5.4
11.961,2724743.418,-0.00038,0.00015,-0.00053,1,0,5.4
11.982,2724743.437,0.00023,0.00015,8e-05,1,0,5.4
11.996,2724743.456,0.00015,0.00015,8e-05,1,0,5.4
12.017,2724743.475,-0.00046,0.00015,8e-05,1,0,5.4
12.033,2724743.494,0.00015,0.00015,8e-05,1,0,5.4
12.052,2724743.513,-0.00046,0.00015,8e-05,1,0,5.4
12.071,2724743.532,0.00015,0.00015,-0.00053,1,0,5.4
12.092,2724743.551,-0.00046,0.00015,8e-05,1,0,5.4
12.11,2724743.57,0.00076,0.00015,8e-05,1,0,5.4
12.128,2724743.589,-0.00046,0.00015,-0.00053,1,0,5.4
12.147,2724743.608,0.00015,-0.00046,8e-05,1,0,5.4
12.167,2724743.627,8e-05,-0.00046,8e-05,1,0,5.4
12.187,2724743.646,8e-05,0.00015,-0.00053,1,0,5.4
12.205,2724743.665,8e-05,0.00015,-0.00053,1,0,5.4
12.223,2724743.684,-0.00053,0.00015,-0.00053,1,0,5.4
12.243,2724743.703,8e-05,0.00015,8e-05,1,0,5.4
12.262,2724743.722,-0.00053,-0.00046,-0.00053,1,0,5.4
12.282,2724743.741,0.00069,0.00015,8e-05,1,0,5.4
12.301,2724743.76,8e-05,-0.00046,8e-05,1,0,5.4
12.319,2724743.779,0.00069,0.00015,-0.00053,1,0,5.4
12.338,2724743.798,-0.00053,0.00015,-0.00046,1,0,5.4
12.359,2724743.817,8e-05,0.00015,-0.00046,1,0,5.4
12.379,2724743.836,-0.00053,8e-05,-0.00046,1,0,5.4
12.401,2724743.855,8e-05,8e-05,0.00015,1,0,5.4
12.413,2724743.874,8e-05,8e-05,0.00015,1,0,5.4
12.433,2724743.893,-0.00115,8e-05,0.00076,1,0,5.4
12.465,2724743.912,8e-05,-0.00053,0.00076,1,0,5.4
12.471,2724743.932,-0.00115,-0.00053,0.00015,1,0,5.4
12.489,2724743.951,8e-05,-0.00053,0.00076,1,0,5.4
12.509,2724743.97,-0.00053,8e-05,0.00015,1,0,5.4
12.531,2724743.989,8e-05,8e-05,0.00023,1,0,5.4
12.549,2724744.008,-0.00046,8e-05,0.00023,1,0,5.4
12.565,2724744.027,0.00015,8e-05,0.00023,1,0,5.4
12.588,2724744.046,-0.00046,-0.00053,0.00023,1,0,5.4
12.608,2724744.065,-0.00046,8e-05,0.00023,1,0,5.4
12.623,2724744.084,0.00076,8e-05,0.00023,1,0,5.4
12.641,2724744.103,0.00015,-0.00053,0.00023,1,0,5.4
12.659,2724744.122,0.00076,0.00015,0.00023,1,0,5.4
12.682,2724744.141,0.00015,0.00015,-0.00038,1,0,5.4
12.701,2724744.16,0.00015,0.00076,0.00023,1,0,5.4
12.717,2724744.179,-0.00046,-0.00046,0.00023,1,0,5.4
12.741,2724744.198,0.00015,-0.00046,0.00076,1,0,5.4
12.757,2724744.217,0.00015,0.00015,0.00015,1,0,5.4
12.776,2724744.236,0.00015,-0.00046,-0.00046,1,0,5.4
12.797,2724744.255,0.00076,0.00015,0.00015,1,0,5.4
12.813,2724744.274,0.00023,0.00015,0.00015,1,0,5.4
12.833,2724744.293,0.00084,0.00015,-0.00046,1,0,5.4
12.852,2724744.312,0.00023,-0.00046,0.00015,1,0,5.4
12.873,2724744.331,0.00023,0.00015,-0.00046,1,0,5.4
12.889,2724744.35,0.00023,0.00015,0.00015,1,0,5.4
12.909,2724744.369,0.00084,0.00015,0.00076,1,0,5.4
12.928,2724744.388,0.00023,-0.00046,8e-05,1,0,5.4
12.949,2724744.407,-0.00038,0.00015,8e-05,1,0,5.4
12.965,2724744.426,0.00015,0.00015,8e-05,1,0,5.4
12.985,2724744.445,0.00015,0.00015,-0.00053,1,0,5.4
13.003,2724744.464,0.00015,0.00015,8e-05,1,0,5.4
13.025,2724744.483,-0.00046,-0.00046,8e-05,1,0,5.4
13.04,2724744.502,0.00076,0.00015,8e-05,1,0,5.4
13.078,2724744.521,-0.00046,0.00015,8e-05,1,0,5.4
13.079,2724744.54,0.00015,0.00015,-0.00053,1,0,5.4
13.102,2724744.559,-0.00046,0.00015,8e-05,1,0,5.4
13.117,2724744.578,0.00015,-0.00046,8e-05,1,0,5.4
13.137,2724744.597,8e-05,-0.00046,8e-05,1,0,5.4
13.156,2724744.616,8e-05,0.00015,8e-05,1,0,5.4
13.176,2724744.635,8e-05,-0.00046,-0.00053,1,0,5.4
13.196,2724744.654,8e-05,-0.00046,8e-05,1,0,5.4
13.213,2724744.673,8e-05,0.00015,-0.00053,1,0,5.4
13.231,2724744.692,-0.00115,0.00015,8e-05,1,0,5.4
13.252,2724744.711,0.00069,0.00015,8e-05,1,0,5.4
13.274,2724744.73,8e-05,-0.00046,8e-05,1,0,5.4
13.288,2724744.749,0.00069,-0.00046,8e-05,1,0,5.4
13.308,2724744.768,0.0,-0.00046,8e-05,1,0,5.4
13.326,2724744.787,0.00061,0.00015,8e-05,1,0,5.4
13.349,2724744.806,0.0,-0.00046,8e-05,1,0,5.4
13.364,2724744.825,0.0,0.00015,8e-05,1,0,5.4
13.384,2724744.844,0.0,0.00015,-0.00053,1,0,5.4
13.403,2724744.864,-0.00122,0.00015,8e-05,1,0,5.4
13.425,2724744.883,0.0,0.00015,8e-05,1,0,5.4
13.44,2724744.902,-0.00061,-0.00046,0.00069,1,0,5.4
13.459,2724744.921,0.0,0.00023,8e-05,1,0,5.4
13.478,2724744.94,0.0,0.00023,8e-05,1,0,5.4
13.498,2724744.959,0.00061,0.00023,8e-05,1,0,5.4
13.517,2724744.978,0.0,-0.00038,8e-05,1,0,5.4
13.537,2724744.997,0.0,0.00023,8e-05,1,0,5.4
13.555,2724745.016,0.0,0.00023,8e-05,1,0,5.4
13.575,2724745.035,-0.00061,0.00023,-0.00053,1,0,5.4
13.593,2724745.054,0.0,-0.00038,8e-05,1,0,5.4
13.615,2724745.073,0.0,0.00023,8e-05,1,0,5.4
13.631,2724745.092,0.00069,0.00023,-0.00053,1,0,5.4
13.651,2724745.111,-0.00115,0.00023,8e-05,1,0,5.4
13.672,2724745.13,8e-05,0.00023,8e-05,1,0,5.4
13.691,2724745.149,8e-05,0.00084,8e-05,1,0,5.4
13.71,2724745.168,0.00069,0.00023,8e-05,1,0,5.4
13.73,2724745.187,8e-05,0.00023,8e-05,1,0,5.4
13.749,2724745.206,8e-05,-0.00038,8e-05,1,0,5.4
13.766,2724745.225,8e-05,-0.00038,8e-05,1,0,5.4
13.784,2724745.244,-0.00053,-0.00038,0.00069,1,0,5.4
13.804,2724745.263,0.00069,0.00023,8e-05,1,0,5.4
13.825,2724745.282,-0.00053,0.00023,8e-05,1,0,5.4
13.84,2724745.301,0.00069,0.00023,8e-05,1,0,5.4
13.858,2724745.32,8e-05,0.00023,8e-05,1,0,5.4
13.88,2724745.339,0.00069,-0.00038,8e-05,1,0,5.4
13.897,2724745.358,8e-05,-0.00038,8e-05,1,0,5.4
13.915,2724745.377,8e-05,0.00023,8e-05,1,0,5.4
13.937,2724745.396,8e-05,0.00015,8e-05,1,0,5.4
13.955,2724745.415,8e-05,0.00015,-0.00053,1,0,5.4
13.975,2724745.434,8e-05,0.00015,8e-05,1,0,5.4
13.997,2724745.453,-0.00053,-0.00046,8e-05,1,0,5.4
14.016,2724745.472,0.00069,0.00015,8e-05,1,0,5.4
14.03,2724745.491,8e-05,-0.00046,8e-05,1,0,5.4
14.05,2724745.51,8e-05,0.00015,8e-05,1,0,5.4
14.069,2724745.529,-0.00115,0.00015,8e-05,1,0,5.4
14.095,2724745.548,0.0,0.00076,0.0,1,0,5.4
14.106,2724745.567,-0.00061,0.00015,0.0,1,0,5.4
14.126,2724745.586,-0.00061,0.00076,-0.00061,1,0,5.4
14.144,2724745.605,0.0,0.00015,-0.00061,1,0,5.4
14.163,2724745.624,-0.00061,0.00015,0.0,1,0,5.4
14.183,2724745.643,0.00061,0.00015,0.0,1,0,5.4
14.202,2724745.662,-0.00061,0.00015,-0.00061,1,0,5.4
14.221,2724745.681,0.0,0.00015,0.00061,1,0,5.4
14.24,2724745.7,-0.00122,0.00015,0.00061,1,0,5.4
14.257,2724745.719,0.0,0.00015,0.0,1,0,5.4
14.278,2724745.738,0.0,0.00015,0.0,1,0,5.4
14.3,2724745.757,0.00061,0.00015,-0.00061,1,0,5.4
14.315,2724745.776,0.00061,0.00015,-0.00061,1,0,5.4
14.335,2724745.796,-0.00053,0.00015,0.0,1,0,5.4
14.355,2724745.815,8e-05,0.00015,-0.00061,1,0,5.4
14.378,2724745.834,-0.00053,0.00015,0.0,1,0,5.4
14.392,2724745.853,0.00069,-0.00053,8e-05,1,0,5.4
14.411,2724745.872,-0.00053,8e-05,8e-05,1,0,5.4
14.43,2724745.891,0.00069,8e-05,-0.00053,1,0,5.4
14.45,2724745.91,-0.00053,-0.00053,-0.00053,1,0,5.4
14.469,2724745.929,8e-05,8e-05,8e-05,1,0,5.4
14.487,2724745.948,-0.00053,0.00069,-0.00053,1,0,5.4
14.506,2724745.967,8e-05,-0.00053,-0.00053,1,0,5.4
14.526,2724745.986,0.00069,8e-05,8e-05,1,0,5.4
14.545,2724746.005,-0.00053,8e-05,8e-05,1,0,5.4
14.562,2724746.024,8e-05,0.00069,8e-05,1,0,5.4
14.582,2724746.043,-0.00046,8e-05,-0.00053,1,0,5.4
14.601,2724746.062,0.00015,-0.00053,-0.00053,1,0,5.4
14.62,2724746.081,-0.00046,8e-05,8e-05,1,0,5.4
14.639,2724746.1,0.00015,0.00069,-0.00053,1,0,5.4
14.658,2724746.119,0.00015,0.0,0.00015,1,0,5.4
14.678,2724746.138,0.00015,0.00061,0.00015,1,0,5.4
14.699,2724746.157,0.00015,-0.00061,0.00015,1,0,5.4
14.715,2724746.176,0.00015,0.0,0.00015,1,0,5.4
14.734,2724746.195,0.00015,0.00061,-0.00046,1,0,5.4
14.752,2724746.214,-0.00046,0.0,0.00015,1,0,5.4
14.772,2724746.233,0.00076,-0.00061,-0.00046,1,0,5.4
14.792,2724746.252,0.00015,0.0,0.00076,1,0,5.4
14.815,2724746.271,0.00015,-0.00061,0.00015,1,0,5.4
14.831,2724746.29,-0.00046,-0.00061,0.00015,1,0,5.4
14.848,2724746.309,0.00015,-0.00061,0.00023,1,0,5.4
14.867,2724746.328,-0.00046,0.0,-0.00038,1,0,5.4
14.89,2724746.347,0.00015,0.0,-0.00038,1,0,5.4
14.905,2724746.366,0.00076,0.0,-0.00038,1,0,5.4
14.925,2724746.385,0.00015,0.0,-0.00038,1,0,5.4
14.944,2724746.404,0.00076,0.0,-0.00038,1,0,5.4
14.964,2724746.423,-0.00046,-0.00061,0.00023,1,0,5.4
14.981,2724746.442,0.00015,0.0,0.00023,1,0,5.4
15.001,2724746.461,0.00015,0.0,0.00084,1,0,5.4
15.02,2724746.48,0.00076,0.0,0.00023,1,0,5.4
15.038,2724746.499,-0.00046,-0.00061,0.00023,1,0,5.4
15.068,2724746.518,0.00015,8e-05,-0.00038,1,0,5.4
15.078,2724746.537,8e-05,8e-05,-0.00038,1,0,5.4
15.096,2724746.556,8e-05,8e-05,0.00023,1,0,5.4
15.112,2724746.575,8e-05,8e-05,0.00023,1,0,5.4
15.133,2724746.594,-0.00053,8e-05,-0.00038,1,0,5.4
15.153,2724746.613,0.00069,8e-05,0.00023,1,0,5.4
15.172,2724746.632,-0.00053,8e-05,0.00023,1,0,5.4
15.191,2724746.651,8e-05,-0.00053,-0.00038,1,0,5.4
15.211,2724746.67,-0.00053,-0.00053,0.00023,1,0,5.4
15.229,2724746.689,8e-05,8e-05,-0.00038,1,0,5.4
15.248,2724746.708,-0.00053,8e-05,-0.00099,1,0,5.4
15.267,2724746.728,8e-05,8e-05,-0.00038,1,0,5.4
15.287,2724746.747,0.00069,8e-05,0.00023,1,0,5.4
15.305,2724746.766,-0.00053,8e-05,-0.00038,1,0,5.4
15.324,2724746.785,0.00069,8e-05,0.00023,1,0,5.4
15.344,2724746.804,-0.00053,8e-05,-0.00038,1,0,5.4
15.362,2724746.823,0.00069,0.00015,-0.00038,1,0,5.4
15.381,2724746.842,-0.00115,0.00015,0.00023,1,0,5.4
15.402,2724746.861,8e-05,0.00015,0.00023,1,0,5.4
15.418,2724746.88,-0.00053,0.00015,0.00023,1,0,5.4
15.437,2724746.899,8e-05,-0.00046,0.00023,1,0,5.4
15.459,2724746.918,8e-05,0.00015,-0.00038,1,0,5.4
15.479,2724746.937,8e-05,0.00015,0.00023,1,0,5.4
15.496,2724746.956,8e-05,0.00015,0.00023,1,0,5.4
15.516,2724746.975,-0.00115,-0.00046,0.00084,1,0,5.4
15.534,2724746.994,8e-05,-0.00046,0.00023,1,0,5.4
15.552,2724747.013,-0.00053,-0.00046,-0.00038,1,0,5.4
15.571,2724747.032,0.00069,0.00015,0.00023,1,0,5.4
15.594,2724747.051,8e-05,0.00015,0.00023,1,0,5.4
15.613,2724747.07,-0.00053,0.00015,0.00023,1,0,5.4
15.628,2724747.089,-0.00053,0.00015,-0.00099,1,0,5.4
15.649,2724747.108,8e-05,0.00015,-0.00038,1,0,5.4
15.666,2724747.127,8e-05,0.00076,-0.00038,1,0,5.4
15.686,2724747.146,8e-05,0.00015,-0.00038,1,0,5.4
15.709,2724747.165,0.00015,0.00015,-0.00038,1,0,5.4
15.724,2724747.184,-0.00046,0.00015,0.00023,1,0,5.4
15.742,2724747.203,0.00076,0.00015,0.00031,1,0,5.4
15.76,2724747.222,-0.00046,0.00015,0.00031,1,0,5.4
15.782,2724747.241,0.00015,0.00015,-0.00031,1,0,5.4
15.801,2724747.26,-0.00046,0.00015,0.00031,1,0,5.4
15.819,2724747.279,0.00015,0.00015,0.00031,1,0,5.4
15.841,2724747.298,0.00015,0.00015,0.00031,1,0,5.4
15.857,2724747.317,0.00015,-0.00053,0.00031,1,0,5.4
15.877,2724747.336,0.00015,8e-05,-0.00031,1,0,5.4
15.898,2724747.355,-0.00046,8e-05,0.00031,1,0,5.4
15.913,2724747.374,0.00015,8e-05,-0.00038,1,0,5.4
15.933,2724747.393,-0.00046,8e-05,0.00023,1,0,5.4
15.952,2724747.412,0.00076,8e-05,0.00023,1,0,5.4
15.971,2724747.431,-0.00046,8e-05,0.00023,1,0,5.4
15.992,2724747.45,0.00076,-0.00053,-0.00038,1,0,5.4
16.01,2724747.469,-0.00046,-0.00053,-0.00038,1,0,5.4
16.03,2724747.488,-0.00046,8e-05,-0.00038,1,0,5.4
16.05,2724747.507,0.00015,8e-05,-0.00038,1,0,5.4
16.066,2724747.526,0.00076,-0.00053,-0.00038,1,0,5.4
16.085,2724747.545,0.00076,8e-05,0.00023,1,0,5.4
16.104,2724747.564,0.00015,8e-05,0.00023,1,0,5.4
16.122,2724747.583,0.00076,8e-05,0.00023,1,0,5.4
16.142,2724747.602,-0.00046,8e-05,0.00023,1,0,5.4
16.16,2724747.621,0.00076,8e-05,0.00023,1,0,5.4
16.179,2724747.64,-0.00046,8e-05,0.00023,1,0,5.4
16.198,2724747.66,0.00015,8e-05,0.00023,1,0,5.4
16.219,2724747.679,0.00015,8e-05,-0.00038,1,0,5.4
16.238,2724747.698,-0.00046,-0.00053,0.00023,1,0,5.4
16.257,2724747.717,0.00015,8e-05,0.00023,1,0,5.4
16.278,2724747.736,-0.00046,8e-05,0.00023,1,0,5.4
16.298,2724747.755,0.00076,-0.00053,0.00023,1,0,5.4
16.313,2724747.774,-0.00046,8e-05,0.00023,1,0,5.4
16.333,2724747.793,0.00076,8e-05,0.00084,1,0,5.4
16.352,2724747.812,0.00015,-0.00053,0.00023,1,0,5.4
16.371,2724747.831,8e-05,-0.00053,0.00023,1,0,5.4
16.39,2724747.85,-0.00053,8e-05,0.00023,1,0,5.4
16.408,2724747.869,0.00069,8e-05,0.00023,1,0,5.4
16.427,2724747.888,8e-05,8e-05,-0.00038,1,0,5.4
16.45,2724747.907,-0.00053,0.00069,0.00023,1,0,5.4
16.466,2724747.926,8e-05,8e-05,0.00023,1,0,5.4
16.487,2724747.945,-0.00053,8e-05,0.00023,1,0,5.4
16.508,2724747.964,8e-05,8e-05,0.00023,1,0,5.4
16.522,2724747.983,-0.00053,-0.00046,0.00023,1,0,5.4
16.541,2724748.002,0.00069,0.00015,0.00023,1,0,5.4
16.558,2724748.021,8e-05,0.00015,0.00015,1,0,5.4
16.578,2724748.04,0.00069,0.00015,0.00015,1,0,5.4
16.6,2724748.059,8e-05,-0.00046,-0.00046,1,0,5.4
16.618,2724748.078,0.00069,0.00015,0.00015,1,0,5.4
16.636,2724748.097,-0.00053,-0.00046,0.00015,1,0,5.4
16.656,2724748.116,-0.00053,-0.00046,0.00015,1,0,5.4
16.679,2724748.135,8e-05,0.00076,-0.00046,1,0,5.4
16.697,2724748.154,-0.00053,-0.00046,-0.00046,1,0,5.4
16.716,2724748.173,0.00069,0.00015,0.00015,1,0,5.4
16.733,2724748.192,8e-05,-0.00046,8e-05,1,0,5.4
16.751,2724748.211,0.00069,-0.00046,8e-05,1,0,5.4
16.77,2724748.23,8e-05,-0.00046,8e-05,1,0,5.4
16.791,2724748.249,8e-05,0.00015,8e-05,1,0,5.4
16.809,2724748.268,8e-05,-0.00046,8e-05,1,0,5.4
16.826,2724748.287,-0.00053,0.00015,0.00069,1,0,5.4
16.847,2724748.306,8e-05,0.00015,8e-05,1,0,5.4
16.863,2724748.325,-0.00053,0.00015,8e-05,1,0,5.4
16.885,2724748.344,8e-05,0.00015,8e-05,1,0,5.4
16.904,2724748.363,-0.00115,-0.00046,8e-05,1,0,5.4
16.921,2724748.382,8e-05,0.00015,8e-05,1,0,5.4
16.94,2724748.401,-0.00053,-0.00046,-0.00053,1,0,5.4
16.959,2724748.42,8e-05,-0.00046,-0.00053,1,0,5.4
16.983,2724748.439,-0.00115,0.00015,-0.00053,1,0,5.4
17.001,2724748.458,-0.00053,-0.00046,8e-05,1,0,5.4
17.019,2724748.477,8e-05,0.00015,8e-05,1,0,5.4
17.038,2724748.496,8e-05,0.00015,8e-05,1,0,5.4
17.077,2724748.515,8e-05,0.00015,8e-05,1,0,5.4
17.078,2724748.534,-0.00053,-0.00046,8e-05,1,0,5.4
17.092,2724748.553,8e-05,0.00023,8e-05,1,0,5.4
17.112,2724748.572,-0.00053,-0.00038,-0.00053,1,0,5.4
17.13,2724748.592,8e-05,0.00023,8e-05,1,0,5.4
17.15,2724748.611,8e-05,-0.00038,-0.00053,1,0,5.4
17.168,2724748.63,0.00069,0.00023,8e-05,1,0,5.4
17.187,2724748.649,-0.00053,0.00023,8e-05,1,0,5.4
17.206,2724748.668,0.00015,0.00023,8e-05,1,0,5.4
17.225,2724748.687,0.00076,0.00023,8e-05,1,0,5.4
17.243,2724748.706,-0.00046,-0.00038,8e-05,1,0,5.4
17.263,2724748.725,0.00015,0.00023,-0.00053,1,0,5.4
17.281,2724748.744,-0.00107,0.00023,-0.00053,1,0,5.4
17.303,2724748.763,0.00076,0.00023,-0.00053,1,0,5.4
17.321,2724748.782,0.00015,0.00023,-0.00053,1,0,5.4
17.339,2724748.801,0.00076,0.00023,8e-05,1,0,5.4
17.357,2724748.82,-0.00046,-0.00038,8e-05,1,0,5.4
17.378,2724748.839,0.00023,0.00023,0.00069,1,0,5.4
17.396,2724748.858,0.00023,-0.00038,0.00069,1,0,5.4
17.415,2724748.877,0.00023,0.00023,0.00015,1,0,5.4
17.435,2724748.896,0.00023,0.00023,0.00015,1,0,5.4
17.453,2724748.915,-0.00038,0.00023,0.00015,1,0,5.4
17.472,2724748.934,0.00084,0.00023,-0.00046,1,0,5.4
17.491,2724748.953,-0.00038,-0.00038,0.00015,1,0,5.4
17.51,2724748.972,0.00084,0.00023,-0.00107,1,0,5.4
17.529,2724748.991,0.00023,0.00023,-0.00046,1,0,5.4
17.548,2724749.01,0.00023,0.00023,-0.00107,1,0,5.4
17.567,2724749.029,0.00023,0.00023,-0.00046,1,0,5.4
17.586,2724749.048,0.00023,0.00023,-0.00046,1,0,5.4
17.606,2724749.067,0.00015,-0.00038,-0.00046,1,0,5.4
17.624,2724749.086,-0.00107,0.00023,0.00015,1,0,5.4
17.644,2724749.105,0.00015,0.00023,0.00015,1,0,5.4
17.662,2724749.124,-0.00046,0.00084,0.00076,1,0,5.4
17.683,2724749.143,0.00015,0.00023,0.00015,1,0,5.4
17.701,2724749.162,-0.00046,-0.00046,-0.00046,1,0,5.4
17.719,2724749.181,0.00076,0.00015,-0.00046,1,0,5.4
17.738,2724749.2,-0.00046,-0.00046,0.00023,1,0,5.4
17.76,2724749.219,-0.00046,-0.00046,0.00023,1,0,5.4
17.78,2724749.238,-0.00046,-0.00046,0.00023,1,0,5.4
17.796,2724749.257,0.00015,-0.00046,0.00023,1,0,5.4
17.814,2724749.276,0.00069,-0.00046,0.00023,1,0,5.4
17.834,2724749.295,8e-05,0.00015,0.00023,1,0,5.4
17.852,2724749.314,0.00069,0.00015,0.00023,1,0,5.4
17.875,2724749.333,-0.00053,-0.00046,0.00023,1,0,5.4
17.892,2724749.352,0.00069,0.00015,0.00023,1,0,5.4
17.911,2724749.371,-0.00053,-0.00046,0.00023,1,0,5.4
17.932,2724749.39,-0.00053,0.00076,-0.00038,1,0,5.4
17.948,2724749.409,-0.00053,0.00015,0.00023,1,0,5.4
17.966,2724749.428,8e-05,0.00015,0.00023,1,0,5.4
17.986,2724749.447,8e-05,0.00015,0.00023,1,0,5.4
18.005,2724749.466,-0.00053,0.00015,0.00023,1,0,5.4
18.024,2724749.485,8e-05,0.00015,0.00023,1,0,5.4
18.043,2724749.504,-0.00053,-0.00046,0.00023,1,0,5.4
18.063,2724749.524,8e-05,0.00015,-0.00038,1,0,5.4
18.083,2724749.543,0.00015,-0.00046,0.00023,1,0,5.4
18.101,2724749.562,0.00076,0.00076,0.00023,1,0,5.4
18.119,2724749.581,-0.00046,0.00015,-0.00038,1,0,5.4
18.137,2724749.6,0.00015,0.00015,-0.00038,1,0,5.4
18.157,2724749.619,-0.00046,0.00015,-0.00038,1,0,5.4
18.176,2724749.638,0.00015,0.00015,0.00023,1,0,5.4
18.195,2724749.657,0.00015,0.00015,-0.00038,1,0,5.4
18.213,2724749.676,-0.00107,0.00015,-0.00038,1,0,5.4
18.233,2724749.695,0.00015,-0.00046,-0.00046,1,0,5.4
18.252,2724749.714,-0.00046,0.00015,-0.00046,1,0,5.4
18.271,2724749.733,0.00076,0.00015,-0.00046,1,0,5.4
18.291,2724749.752,-0.00046,-0.00046,0.00015,1,0,5.4
18.31,2724749.771,0.00015,-0.00046,-0.00046,1,0,5.4
18.329,2724749.79,0.00015,0.00015,0.00015,1,0,5.4
18.347,2724749.809,-0.00046,0.00015,0.00015,1,0,5.4
18.366,2724749.828,-0.00046,0.00015,0.00015,1,0,5.4
18.386,2724749.847,-0.00046,0.00015,0.00015,1,0,5.4
18.404,2724749.866,0.00076,0.00015,0.00015,1,0,5.4
18.424,2724749.885,-0.00107,-0.00046,0.00015,1,0,5.4
18.444,2724749.904,0.00015,0.00015,0.00015,1,0,5.4
18.461,2724749.923,-0.00046,-0.00046,0.00015,1,0,5.4
18.48,2724749.942,0.00015,0.00076,0.00023,1,0,5.4
18.5,2724749.961,0.00023,0.00015,0.00023,1,0,5.4
18.519,2724749.98,0.00084,0.00015,0.00023,1,0,5.4
18.536,2724749.999,0.00084,0.00015,0.00023,1,0,5.4
18.558,2724750.018,0.00023,0.00015,0.00023,1,0,5.4
18.576,2724750.037,0.00084,0.00015,0.00023,1,0,5.4
18.594,2724750.056,-0.00038,0.00015,0.00023,1,0,5.4
18.612,2724750.075,0.00023,-0.00046,0.00023,1,0,5.4
18.632,2724750.094,0.00023,-0.00046,0.00023,1,0,5.4
18.652,2724750.113,0.00023,0.00015,0.00023,1,0,5.4
18.673,2724750.132,-0.00038,0.00015,-0.00038,1,0,5.4
18.69,2724750.151,0.00084,-0.00046,0.00023,1,0,5.4
18.709,2724750.17,-0.00038,0.00015,0.00023,1,0,5.4
18.728,2724750.189,0.00023,0.00015,-0.00038,1,0,5.4
18.749,2724750.208,0.00023,0.00015,-0.00038,1,0,5.4
18.766,2724750.227,-0.00038,0.00015,-0.00038,1,0,5.4
18.785,2724750.246,0.00023,0.00015,-0.00038,1,0,5.4
18.805,2724750.265,-0.00038,-0.00046,0.00023,1,0,5.4
18.823,2724750.284,0.00015,0.00015,-0.00038,1,0,5.4
18.842,2724750.303,-0.00107,0.00015,0.00023,1,0,5.4
18.861,2724750.322,0.00015,0.00015,0.00015,1,0,5.4
18.88,2724750.341,0.00015,0.00015,0.00015,1,0,5.4
18.9,2724750.36,0.00015,0.00015,0.00015,1,0,5.4
18.918,2724750.379,0.00015,-0.00046,0.00076,1,0,5.4
18.937,2724750.398,0.00015,0.00015,0.00015,1,0,5.4
18.957,2724750.417,-0.00046,0.00015,0.00015,1,0,5.4
18.975,2724750.436,-0.00046,0.00015,-0.00046,1,0,5.4
18.994,2724750.456,0.00076,0.00015,-0.00046,1,0,5.4
19.013,2724750.475,-0.00046,0.00015,0.00015,1,0,5.4
19.031,2724750.494,0.00076,0.00015,0.00015,1,0,5.4
19.076,2724750.513,-0.00107,0.00015,0.00076,1,0,5.4
19.077,2724750.532,0.00076,-0.00046,-0.00046,1,0,5.4
19.089,2724750.551,0.00015,-0.00046,0.00076,1,0,5.4
19.109,2724750.57,0.00076,-0.00046,0.00015,1,0,5.4
19.127,2724750.589,0.00076,0.00015,0.00015,1,0,5.4
19.146,2724750.608,-0.00046,0.00015,0.00015,1,0,5.4
19.165,2724750.627,0.00015,0.00015,-0.00046,1,0,5.4
19.185,2724750.646,0.00015,-0.00046,0.00015,1,0,5.4
19.203,2724750.665,0.00076,-0.00046,-0.00046,1,0,5.4
19.221,2724750.684,-0.00046,-0.00046,-0.00046,1,0,5.4
19.242,2724750.703,0.00076,0.00015,0.00015,1,0,5.4
19.259,2724750.722,-0.00046,-0.00046,0.00015,1,0,5.4
19.279,2724750.741,0.00015,0.00015,-0.00046,1,0,5.4
19.298,2724750.76,0.00015,-0.00046,0.00076,1,0,5.4
19.32,2724750.779,0.00015,-0.00107,0.00015,1,0,5.4
19.337,2724750.798,0.00015,-0.00046,0.00015,1,0,5.4
19.357,2724750.817,-0.00046,-0.00046,-0.00046,1,0,5.4
19.375,2724750.836,0.00076,-0.00046,0.00015,1,0,5.4
19.394,2724750.855,0.00015,-0.00046,0.00076,1,0,5.4
19.413,2724750.874,0.00069,0.00015,0.00015,1,0,5.4
19.431,2724750.893,-0.00053,0.00015,0.00076,1,0,5.4
19.451,2724750.912,8e-05,0.00015,0.00015,1,0,5.4
19.47,2724750.931,-0.00053,0.00023,0.00015,1,0,5.4
19.493,2724750.95,8e-05,-0.00038,0.00015,1,0,5.4
19.508,2724750.969,8e-05,-0.00038,0.00015,1,0,5.4
19.528,2724750.988,8e-05,-0.00038,-0.00053,1,0,5.4
19.546,2724751.007,8e-05,0.00023,-0.00053,1,0,5.4
19.566,2724751.026,-0.00053,0.00023,8e-05,1,0,5.4
19.585,2724751.045,8e-05,0.00023,8e-05,1,0,5.4
19.604,2724751.064,-0.00053,0.00031,8e-05,1,0,5.4
19.623,2724751.083,8e-05,0.00031,8e-05,1,0,5.4
19.641,2724751.102,-0.00115,0.00031,8e-05,1,0,5.4
19.661,2724751.121,8e-05,0.00092,0.00069,1,0,5.4
19.679,2724751.14,0.00061,0.00031,8e-05,1,0,5.4
19.701,2724751.159,0.0,-0.00031,-0.00053,1,0,5.4
19.716,2724751.178,0.0,0.00031,8e-05,1,0,5.4
19.738,2724751.197,-0.00053,0.00031,-0.00053,1,0,5.4
19.756,2724751.216,8e-05,0.00031,8e-05,1,0,5.4
19.775,2724751.235,-0.00053,0.00031,-0.00053,1,0,5.4
19.797,2724751.254,8e-05,0.00031,8e-05,1,0,5.4
19.817,2724751.273,8e-05,0.00031,8e-05,1,0,5.4
19.831,2724751.292,0.00069,-0.00031,8e-05,1,0,5.4
19.85,2724751.311,-0.00053,0.00031,8e-05,1,0,5.4
19.87,2724751.33,-0.00053,0.00031,8e-05,1,0,5.4
19.89,2724751.349,-0.00115,0.00031,0.00069,1,0,5.4
19.907,2724751.368,-0.00053,0.00031,-0.00053,1,0,5.4
19.93,2724751.388,8e-05,0.00031,8e-05,1,0,5.4
19.949,2724751.407,8e-05,-0.00031,8e-05,1,0,5.4
19.964,2724751.426,0.00069,0.00092,8e-05,1,0,5.4
19.987,2724751.445,8e-05,0.00023,-0.00053,1,0,5.4
20.004,2724751.464,0.00069,0.00023,-0.00053,1,0,5.4
20.026,2724751.483,0.00015,-0.00038,-0.00053,1,0,5.4
20.041,2724751.502,0.00015,0.00023,8e-05,1,0,5.4
20.06,2724751.521,-0.00046,-0.00038,8e-05,1,0,5.4
20.078,2724751.54,-0.00107,0.00084,-0.00053,1,0,5.4
20.105,2724751.559,0.00015,0.00015,8e-05,1,0,5.4
20.117,2724751.578,0.00015,0.00015,8e-05,1,0,5.4
20.137,2724751.597,0.00076,0.00015,8e-05,1,0,5.4
20.157,2724751.616,0.00015,0.00015,8e-05,1,0,5.4
20.174,2724751.635,0.00015,0.00015,8e-05,1,0,5.4
20.193,2724751.654,-0.00107,-0.00046,-0.00053,1,0,5.4
20.212,2724751.673,0.00076,8e-05,8e-05,1,0,5.4
20.23,2724751.692,-0.00046,8e-05,8e-05,1,0,5.4
20.251,2724751.711,-0.00046,8e-05,-0.00053,1,0,5.4
20.273,2724751.73,-0.00046,8e-05,8e-05,1,0,5.4
20.292,2724751.749,0.00015,-0.00053,0.00015,1,0,5.4
20.31,2724751.768,0.00015,8e-05,0.00015,1,0,5.4
20.327,2724751.787,0.00015,8e-05,0.00015,1,0,5.4
20.349,2724751.806,0.00015,8e-05,0.00015,1,0,5.4
20.363,2724751.825,-0.00046,-0.00053,0.00015,1,0,5.4
20.384,2724751.844,0.00015,-0.00053,-0.00046,1,0,5.4
20.402,2724751.863,-0.00046,-0.00053,-0.00046,1,0,5.4
20.421,2724751.882,0.00076,-0.00053,-0.00046,1,0,5.4
20.44,2724751.901,0.00015,-0.00053,0.00015,1,0,5.4
20.458,2724751.92,0.00015,-0.00053,0.00076,1,0,5.4
20.48,2724751.939,-0.00046,8e-05,0.00015,1,0,5.4
20.497,2724751.958,0.00076,8e-05,0.00015,1,0,5.4
20.515,2724751.977,0.00015,8e-05,0.00015,1,0,5.4
20.536,2724751.996,0.00015,8e-05,0.00015,1,0,5.4
20.555,2724752.015,0.00076,8e-05,0.00015,1,0,5.4
20.574,2724752.034,-0.00046,-0.00053,-0.00046,1,0,5.4
20.592,2724752.053,0.00015,8e-05,0.00015,1,0,5.4
20.612,2724752.072,-0.00046,8e-05,0.00015,1,0,5.4
20.632,2724752.091,0.00015,0.00015,0.00015,1,0,5.4
20.65,2724752.11,-0.00046,-0.00046,0.00076,1,0,5.4
20.668,2724752.129,0.00076,0.00015,0.00015,1,0,5.4
20.687,2724752.148,0.00015,0.00015,0.00015,1,0,5.4
20.707,2724752.167,-0.00046,0.00015,0.00015,1,0,5.4
20.726,2724752.186,0.00076,0.00015,0.00015,1,0,5.4
20.748,2724752.205,-0.00046,-0.00046,0.00015,1,0,5.4
20.763,2724752.224,-0.00046,-0.00046,0.00015,1,0,5.4
20.786,2724752.243,-0.00046,0.00015,0.00015,1,0,5.4
20.803,2724752.262,0.00076,0.00015,-0.00046,1,0,5.4
20.82,2724752.281,0.00015,0.00015,0.00015,1,0,5.4
20.842,2724752.3,0.00076,0.00023,0.00076,1,0,5.4
20.858,2724752.32,0.00015,-0.00038,0.00015,1,0,5.4
20.883,2724752.339,0.00015,0.00023,8e-05,1,0,5.4
20.898,2724752.358,0.00076,0.00023,-0.00053,1,0,5.4
20.917,2724752.377,0.00076,0.00023,-0.00053,1,0,5.4
20.936,2724752.396,0.00069,0.00023,8e-05,1,0,5.4
20.955,2724752.415,-0.00053,0.00023,8e-05,1,0,5.4
20.973,2724752.434,8e-05,0.00023,8e-05,1,0,5.4
20.996,2724752.453,-0.00053,-0.00038,-0.00053,1,0,5.4
21.012,2724752.472,8e-05,0.00023,8e-05,1,0,5.4
21.03,2724752.491,0.00069,0.00023,8e-05,1,0,5.4
21.063,2724752.51,8e-05,0.00023,8e-05,1,0,5.4
21.07,2724752.529,-0.00053,-0.00038,8e-05,1,0,5.4
21.09,2724752.548,-0.00053,0.00084,8e-05,1,0,5.4
21.107,2724752.567,0.00069,0.00023,8e-05,1,0,5.4
21.126,2724752.586,-0.00053,0.00023,8e-05,1,0,5.4
21.145,2724752.605,8e-05,-0.00046,8e-05,1,0,5.4
21.162,2724752.624,-0.00053,-0.00046,0.00069,1,0,5.4
21.183,2724752.643,0.0,0.00015,8e-05,1,0,5.4
21.201,2724752.662,0.0,0.00015,8e-05,1,0,5.4
21.225,2724752.681,0.00061,0.00015,8e-05,1,0,5.4
21.24,2724752.7,0.0,0.00015,8e-05,1,0,5.4
21.26,2724752.719,-0.00061,0.00015,8e-05,1,0,5.4
21.28,2724752.738,-0.00061,0.00015,8e-05,1,0,5.4
21.299,2724752.757,0.0,-0.00046,-0.00053,1,0,5.4
21.315,2724752.776,0.00061,0.00015,8e-05,1,0,5.4
21.334,2724752.795,-0.00061,0.00015,8e-05,1,0,5.4
21.353,2724752.814,0.00061,0.00015,-0.00053,1,0,5.4
21.375,2724752.833,-0.00061,0.00015,8e-05,1,0,5.4
21.392,2724752.852,0.00061,0.00015,-0.00053,1,0,5.4
21.414,2724752.871,-0.00061,0.00015,8e-05,1,0,5.4
21.431,2724752.89,0.0,0.00015,8e-05,1,0,5.4
21.449,2724752.909,0.0,0.00015,8e-05,1,0,5.4
21.468,2724752.928,0.0,0.00015,8e-05,1,0,5.4
21.49,2724752.947,0.00061,-0.00046,-0.00053,1,0,5.4
21.506,2724752.966,0.0,0.00076,-0.00053,1,0,5.4
21.528,2724752.985,0.00061,-0.00053,8e-05,1,0,5.4
21.547,2724753.004,-0.00061,8e-05,8e-05,1,0,5.4
21.561,2724753.023,0.0,0.00069,8e-05,1,0,5.4
21.58,2724753.042,-0.00061,-0.00053,8e-05,1,0,5.4
21.6,2724753.061,-0.00053,8e-05,8e-05,1,0,5.4
21.619,2724753.08,8e-05,-0.00053,8e-05,1,0,5.4
21.637,2724753.099,8e-05,8e-05,0.00069,1,0,5.4
21.66,2724753.118,0.00069,8e-05,0.00069,1,0,5.4
21.681,2724753.137,-0.00053,-0.00053,8e-05,1,0,5.4
21.696,2724753.156,8e-05,-0.00053,8e-05,1,0,5.4
21.715,2724753.175,8e-05,8e-05,8e-05,1,0,5.4
21.734,2724753.194,8e-05,8e-05,8e-05,1,0,5.4
21.754,2724753.213,-0.00053,8e-05,8e-05,1,0,5.4
21.772,2724753.232,0.00069,8e-05,8e-05,1,0,5.4
21.794,2724753.252,-0.00053,8e-05,8e-05,1,0,5.4
21.81,2724753.271,8e-05,8e-05,8e-05,1,0,5.4
21.83,2724753.29,-0.00053,8e-05,8e-05,1,0,5.4
21.848,2724753.309,8e-05,8e-05,0.00069,1,0,5.4
21.867,2724753.328,0.00069,8e-05,8e-05,1,0,5.4
21.889,2724753.347,-0.00053,-0.00053,8e-05,1,0,5.4
21.908,2724753.366,8e-05,8e-05,8e-05,1,0,5.4
21.924,2724753.385,-0.00053,8e-05,-0.00053,1,0,5.4
21.943,2724753.404,0.00069,8e-05,-0.00053,1,0,5.4
21.962,2724753.423,-0.00053,8e-05,-0.00053,1,0,5.4
21.981,2724753.442,0.00069,8e-05,8e-05,1,0,5.4
22.001,2724753.461,-0.00053,8e-05,8e-05,1,0,5.4
22.019,2724753.48,8e-05,-0.00053,8e-05,1,0,5.4
22.039,2724753.499,8e-05,8e-05,8e-05,1,0,5.4
22.062,2724753.518,-0.00053,-0.00053,-0.00053,1,0,5.4
22.079,2724753.537,8e-05,8e-05,-0.00053,1,0,5.4
22.095,2724753.556,-0.00053,-0.00053,0.0,1,0,5.4
22.115,2724753.575,8e-05,8e-05,0.0,1,0,5.4
22.132,2724753.594,-0.00053,-0.00053,-0.00061,1,0,5.4
22.153,2724753.613,0.00069,8e-05,0.0,1,0,5.4
22.171,2724753.632,-0.00053,8e-05,-0.00061,1,0,5.4
22.19,2724753.651,0.00069,0.00015,0.0,1,0,5.4
22.209,2724753.67,-0.00053,0.00076,0.0,1,0,5.4
22.228,2724753.689,8e-05,0.00015,0.0,1,0,5.4
22.249,2724753.708,0.00069,0.00015,0.0,1,0,5.4
22.266,2724753.727,-0.00053,-0.00046,8e-05,1,0,5.4
22.289,2724753.746,8e-05,0.00015,8e-05,1,0,5.4
22.304,2724753.765,-0.00053,-0.00046,8e-05,1,0,5.4
22.324,2724753.784,0.00076,0.00015,-0.00053,1,0,5.4
22.343,2724753.803,-0.00107,0.00015,-0.00115,1,0,5.4
22.361,2724753.822,0.00015,-0.00046,8e-05,1,0,5.4
22.38,2724753.841,0.00015,-0.00046,8e-05,1,0,5.4
22.399,2724753.86,0.00015,-0.00046,8e-05,1,0,5.4
22.418,2724753.879,0.00015,0.00015,8e-05,1,0,5.4
22.439,2724753.898,-0.00046,0.00015,8e-05,1,0,5.4
22.456,2724753.917,0.00076,0.00015,0.00015,1,0,5.4
22.477,2724753.936,0.00015,-0.00046,0.00015,1,0,5.4
22.495,2724753.955,0.00015,-0.00046,0.00076,1,0,5.4
22.512,2724753.974,-0.00046,-0.00046,0.00015,1,0,5.4
22.533,2724753.993,0.00015,0.00015,0.00015,1,0,5.4
22.552,2724754.012,0.00015,-0.00046,-0.00046,1,0,5.4
22.571,2724754.031,0.00015,0.00015,0.00015,1,0,5.4
22.59,2724754.05,-0.00046,0.00015,0.00015,1,0,5.4
22.615,2724754.069,0.00015,-0.00046,-0.00046,1,0,5.4
22.631,2724754.088,0.00015,0.00015,0.00015,1,0,5.4
22.646,2724754.107,0.00015,-0.00046,0.00015,1,0,5.4
22.665,2724754.126,0.00076,0.00015,-0.00046,1,0,5.4
22.687,2724754.145,0.00015,-0.00046,0.00015,1,0,5.4
22.704,2724754.164,0.00076,0.00015,0.00015,1,0,5.4
22.723,2724754.183,0.00015,-0.00038,0.00015,1,0,5.4
22.741,2724754.203,0.00015,-0.00038,0.00015,1,0,5.4
22.759,2724754.222,0.00015,0.00023,0.00015,1,0,5.4
22.782,2724754.241,0.00076,0.00023,0.00015,1,0,5.4
22.801,2724754.26,0.00015,-0.00038,0.00015,1,0,5.4
22.822,2724754.279,-0.00046,0.00023,-0.00046,1,0,5.4
22.839,2724754.298,8e-05,0.00023,0.00015,1,0,5.4
22.859,2724754.317,-0.00053,0.00023,-0.00046,1,0,5.4
22.876,2724754.336,0.00069,-0.00038,-0.00046,1,0,5.4
22.895,2724754.355,-0.00053,0.00023,0.00015,1,0,5.4
22.913,2724754.374,0.00069,0.00023,-0.00046,1,0,5.4
22.932,2724754.393,-0.00053,0.00023,-0.00046,1,0,5.4
22.952,2724754.412,-0.00053,-0.00038,0.00015,1,0,5.4
22.97,2724754.431,-0.00053,-0.00031,0.00015,1,0,5.4
22.993,2724754.45,8e-05,-0.00031,0.00015,1,0,5.4
23.009,2724754.469,8e-05,0.00031,-0.00046,1,0,5.4
23.026,2724754.488,-0.00053,0.00031,0.00015,1,0,5.4
23.049,2724754.507,8e-05,0.00031,0.00015,1,0,5.4
23.078,2724754.526,8e-05,-0.00031,0.00015,1,0,5.4
23.084,2724754.545,8e-05,0.00031,-0.00046,1,0,5.4
23.104,2724754.564,-0.00053,0.00031,0.00015,1,0,5.4
23.122,2724754.583,0.00069,0.00092,0.00076,1,0,5.4
23.14,2724754.602,-0.00053,0.00031,0.00015,1,0,5.4
23.16,2724754.621,8e-05,0.00031,-0.00046,1,0,5.4
23.178,2724754.64,8e-05,0.00031,0.00015,1,0,5.4
23.199,2724754.659,8e-05,0.00031,0.00076,1,0,5.4
23.217,2724754.678,8e-05,-0.00031,0.00015,1,0,5.4
23.241,2724754.697,8e-05,-0.00038,0.00015,1,0,5.4
23.258,2724754.716,0.00069,0.00023,-0.00046,1,0,5.4
23.279,2724754.735,-0.00053,-0.00038,-0.00046,1,0,5.4
23.298,2724754.754,0.00069,0.00023,0.00015,1,0,5.4
23.313,2724754.773,8e-05,0.00023,0.00015,1,0,5.4
23.331,2724754.792,8e-05,0.00023,-0.00046,1,0,5.4
23.351,2724754.811,-0.00053,-0.00038,0.00076,1,0,5.4
23.374,2724754.83,-0.00053,0.00023,0.00015,1,0,5.4
23.392,2724754.849,8e-05,0.00023,0.00076,1,0,5.4
23.411,2724754.868,-0.00053,0.00023,0.00015,1,0,5.4
23.426,2724754.887,8e-05,0.00023,0.00015,1,0,5.4
23.448,2724754.906,-0.00115,0.00023,0.00015,1,0,5.4
23.465,2724754.925,8e-05,0.00023,0.00076,1,0,5.4
23.488,2724754.944,8e-05,0.00023,0.00015,1,0,5.4
23.504,2724754.963,0.00069,0.00015,-0.00046,1,0,5.4
23.522,2724754.982,-0.00053,0.00015,-0.00046,1,0,5.4
23.541,2724755.001,8e-05,0.00015,-0.00046,1,0,5.4
23.559,2724755.02,8e-05,-0.00046,0.00015,1,0,5.4
23.578,2724755.039,-0.00053,-0.00046,0.00015,1,0,5.4
23.597,2724755.058,0.00015,-0.00046,0.00015,1,0,5.4
23.618,2724755.077,-0.00046,-0.00046,0.00069,1,0,5.4
23.636,2724755.096,0.00076,-0.00046,8e-05,1,0,5.4
23.659,2724755.115,-0.00046,-0.00046,-0.00053,1,0,5.4
23.678,2724755.135,0.00015,0.00076,8e-05,1,0,5.4
23.695,2724755.154,-0.00046,0.00015,8e-05,1,0,5.4
23.716,2724755.173,0.00015,0.00015,-0.00053,1,0,5.4
23.731,2724755.192,-0.00046,0.00015,8e-05,1,0,5.4
23.751,2724755.211,0.00015,0.00015,-0.00053,1,0,5.4
23.772,2724755.23,0.00015,-0.00046,8e-05,1,0,5.4
23.791,2724755.249,-0.00046,0.00015,8e-05,1,0,5.4
23.809,2724755.268,0.00015,0.00015,-0.00053,1,0,5.4
23.829,2724755.287,-0.00046,0.00015,-0.00053,1,0,5.4
23.845,2724755.306,0.00076,0.00015,-0.00053,1,0,5.4
23.864,2724755.325,-0.00046,-0.00046,8e-05,1,0,5.4
23.885,2724755.344,0.00015,-0.00046,8e-05,1,0,5.4
23.903,2724755.363,-0.00046,-0.00046,8e-05,1,0,5.4
23.921,2724755.382,0.00015,0.00015,8e-05,1,0,5.4
23.941,2724755.401,0.00015,0.00015,8e-05,1,0,5.4
23.961,2724755.42,-0.00046,0.00015,8e-05,1,0,5.4
23.978,2724755.439,0.00015,0.00015,-0.00053,1,0,5.4
24.0,2724755.458,-0.00107,-0.00046,-0.00053,1,0,5.4
24.016,2724755.477,0.00015,0.00015,-0.00053,1,0,5.4
24.039,2724755.496,-0.00046,-0.00046,8e-05,1,0,5.4
24.058,2724755.515,0.00084,-0.00046,0.00069,1,0,5.4
24.077,2724755.534,0.00023,-0.00046,8e-05,1,0,5.4
24.092,2724755.553,0.00084,0.00015,0.00015,1,0,5.4
24.112,2724755.572,-0.00038,-0.00046,0.00015,1,0,5.4
24.129,2724755.591,0.00084,-0.00038,-0.00046,1,0,5.4
24.149,2724755.61,0.00023,0.00023,0.00015,1,0,5.4
24.168,2724755.629,0.00023,-0.00038,0.00015,1,0,5.4
24.187,2724755.648,0.00023,0.00023,0.00076,1,0,5.4
24.21,2724755.667,-0.00038,0.00023,0.00076,1,0,5.4
24.229,2724755.686,0.00023,0.00023,0.00015,1,0,5.4
24.245,2724755.705,-0.00099,0.00023,0.00015,1,0,5.4
24.263,2724755.724,0.00023,0.00084,0.00015,1,0,5.4
24.287,2724755.743,-0.00038,-0.00038,0.00015,1,0,5.4
24.302,2724755.762,0.00084,0.00023,0.00015,1,0,5.4
24.321,2724755.781,0.00023,-0.00038,0.00015,1,0,5.4
24.338,2724755.8,0.00023,0.00023,0.00076,1,0,5.4
24.359,2724755.819,0.00023,-0.00038,0.00015,1,0,5.4
24.377,2724755.838,-0.00038,0.00023,0.00015,1,0,5.4
24.4,2724755.857,-0.00038,0.00023,0.00015,1,0,5.4
24.416,2724755.876,0.00015,-0.00038,0.00076,1,0,5.4
24.439,2724755.895,0.00076,-0.00038,0.00015,1,0,5.4
24.457,2724755.914,0.00015,-0.00038,-0.00046,1,0,5.4
24.473,2724755.933,0.00076,0.00023,-0.00046,1,0,5.4
24.491,2724755.952,-0.00046,-0.00038,8e-05,1,0,5.4
24.51,2724755.971,-0.00046,0.00084,-0.00053,1,0,5.4
24.532,2724755.99,-0.00046,0.00023,-0.00053,1,0,5.4
24.548,2724756.009,0.00015,0.00023,8e-05,1,0,5.4
24.568,2724756.028,0.00015,0.00023,8e-05,1,0,5.4
24.59,2724756.047,0.00015,-0.00038,8e-05,1,0,5.4
24.609,2724756.067,0.00076,-0.00038,0.00069,1,0,5.4
24.625,2724756.086,0.00015,0.00023,8e-05,1,0,5.4
24.643,2724756.105,0.00076,0.00084,0.00069,1,0,5.4
24.663,2724756.124,-0.00046,0.00023,0.00061,1,0,5.4
24.681,2724756.143,0.00015,0.00023,0.0,1,0,5.4
24.701,2724756.162,-0.00107,0.00023,0.0,1,0,5.4
24.719,2724756.181,0.00015,0.00023,0.0,1,0,5.4
24.737,2724756.2,0.00015,0.00023,0.0,1,0,5.4
24.758,2724756.219,-0.00046,0.00023,0.0,1,0,5.4
24.78,2724756.238,0.00015,0.00023,-0.0,1,0,5.4
24.798,2724756.257,-0.00046,0.00023,-0.0,1,0,5.4
24.817,2724756.276,0.00076,0.00023,0.00061,1,0,5.4
24.834,2724756.295,-0.00046,-0.00038,0.00061,1,0,5.4
24.854,2724756.314,0.00015,-0.00038,-0.0,1,0,5.4
24.872,2724756.333,-0.00046,0.00023,-0.0,1,0,5.4
24.895,2724756.352,0.00015,0.00015,-0.00061,1,0,5.4
24.911,2724756.371,0.00015,0.00015,-0.00061,1,0,5.4
24.931,2724756.39,-0.00046,0.00015,-0.0,1,0,5.4
24.948,2724756.409,-0.00046,0.00015,-0.0,1,0,5.4
24.967,2724756.428,0.00015,-0.00046,-0.0,1,0,5.4
24.989,2724756.447,0.00076,0.00015,-0.0,1,0,5.4
25.008,2724756.466,-0.00046,0.00015,-0.0,1,0,5.4
25.024,2724756.485,0.00015,0.00015,-0.0,1,0,5.4
25.051,2724756.504,-0.00046,0.00015,-0.0,1,0,5.4
25.08,2724756.523,0.00015,0.00015,-0.0,1,0,5.4
25.081,2724756.542,0.00015,0.00015,-0.0,1,0,5.4
25.101,2724756.561,0.00015,0.00015,0.00061,1,0,5.4
25.119,2724756.58,0.00076,0.00015,-0.0,1,0,5.4
25.138,2724756.599,0.00015,0.00076,-0.00061,1,0,5.4
25.159,2724756.618,0.00015,8e-05,-8e-05,1,0,5.4
25.177,2724756.637,-0.00046,-0.00053,-0.00069,1,0,5.4
25.2,2724756.656,0.00076,-0.00053,-0.00069,1,0,5.4
25.217,2724756.675,-0.00046,-0.00053,-0.00069,1,0,5.4
25.234,2724756.694,0.00015,-0.00053,-8e-05,1,0,5.4
25.253,2724756.713,0.00015,8e-05,-0.00069,1,0,5.4
25.276,2724756.732,0.00015,-0.00053,-0.0,1,0,5.4
25.294,2724756.751,-0.00046,-0.00053,-0.00061,1,0,5.4
25.315,2724756.77,-0.00046,8e-05,-0.0,1,0,5.4
25.333,2724756.789,0.00015,8e-05,-0.0,1,0,5.4
25.349,2724756.808,-0.00107,8e-05,0.00061,1,0,5.4
25.366,2724756.827,0.00015,8e-05,0.00061,1,0,5.4
25.388,2724756.846,-0.00107,8e-05,0.0,1,0,5.4
25.409,2724756.865,0.00015,8e-05,0.00061,1,0,5.4
25.424,2724756.884,-0.00046,8e-05,0.00061,1,0,5.4
25.443,2724756.903,0.00076,8e-05,0.0,1,0,5.4
25.461,2724756.922,-0.00046,8e-05,8e-05,1,0,5.4
25.481,2724756.941,0.00015,8e-05,8e-05,1,0,5.4
25.501,2724756.96,-0.00046,-0.00046,-0.00053,1,0,5.4
25.52,2724756.979,-0.00046,0.00015,8e-05,1,0,5.4
25.54,2724756.999,0.00015,-0.00046,8e-05,1,0,5.4
25.561,2724757.018,-0.00046,0.00015,8e-05,1,0,5.4
25.577,2724757.037,0.00076,0.00015,8e-05,1,0,5.4
25.596,2724757.056,-0.00107,0.00015,8e-05,1,0,5.4
25.617,2724757.075,0.00076,0.00015,8e-05,1,0,5.4
25.634,2724757.094,-0.00046,0.00015,8e-05,1,0,5.4
25.652,2724757.113,0.00076,0.00015,8e-05,1,0,5.4
25.671,2724757.132,0.00015,0.00015,8e-05,1,0,5.4
25.69,2724757.151,0.00023,0.00015,8e-05,1,0,5.4
25.71,2724757.17,0.00023,0.00015,-0.00053,1,0,5.4
25.73,2724757.189,0.00023,0.00015,-0.00053,1,0,5.4
25.75,2724757.208,0.00084,0.00015,8e-05,1,0,5.4
25.766,2724757.227,0.00023,0.00015,8e-05,1,0,5.4
25.785,2724757.246,0.00084,0.00015,-0.00053,1,0,5.4
25.804,2724757.265,-0.00038,0.00015,8e-05,1,0,5.4
25.822,2724757.284,0.00023,0.00076,-0.00053,1,0,5.4
25.841,2724757.303,-0.00038,0.00015,-0.00053,1,0,5.4
25.86,2724757.322,0.00023,0.00015,-0.00053,1,0,5.4
25.882,2724757.341,-0.00038,0.00015,8e-05,1,0,5.4
25.9,2724757.36,0.00023,-0.00107,0.0,1,0,5.4
25.917,2724757.379,0.00084,0.00015,0.0,1,0,5.4
25.942,2724757.398,-0.00038,0.00015,-0.00061,1,0,5.4
25.961,2724757.417,0.00023,8e-05,-0.00053,1,0,5.4
25.981,2724757.436,-0.00038,-0.00053,8e-05,1,0,5.4
25.997,2724757.455,0.00084,8e-05,8e-05,1,0,5.4
26.013,2724757.474,-0.00099,8e-05,-0.00053,1,0,5.4
26.032,2724757.493,0.00076,8e-05,-0.00053,1,0,5.4
26.055,2724757.512,-0.00046,8e-05,-0.00053,1,0,5.4
26.073,2724757.531,0.00015,8e-05,8e-05,1,0,5.4
26.09,2724757.55,-0.00046,8e-05,8e-05,1,0,5.4
26.109,2724757.569,-0.00046,8e-05,-0.00053,1,0,5.4
26.126,2724757.588,0.00015,8e-05,8e-05,1,0,5.4
26.145,2724757.607,-0.00046,8e-05,0.00015,1,0,5.4
26.166,2724757.626,0.00076,8e-05,0.00015,1,0,5.4
26.185,2724757.645,-0.00046,8e-05,-0.00046,1,0,5.4
26.203,2724757.664,0.00015,8e-05,-0.00046,1,0,5.4
26.221,2724757.683,-0.00107,8e-05,0.00015,1,0,5.4
26.24,2724757.702,0.00015,8e-05,0.00076,1,0,5.4
26.262,2724757.721,8e-05,8e-05,-0.00038,1,0,5.4
26.278,2724757.74,8e-05,8e-05,-0.00038,1,0,5.4
26.299,2724757.759,0.00015,8e-05,-0.00038,1,0,5.4
26.318,2724757.778,0.00015,-0.00053,-0.00038,1,0,5.4
26.338,2724757.797,0.00076,8e-05,-0.00038,1,0,5.4
26.356,2724757.816,0.00015,8e-05,0.00023,1,0,5.4
26.374,2724757.835,0.00076,8e-05,-0.00038,1,0,5.4
26.393,2724757.854,0.00015,8e-05,-0.00038,1,0,5.4
26.414,2724757.873,0.00076,8e-05,-0.00038,1,0,5.4
26.434,2724757.892,0.00015,8e-05,0.00031,1,0,5.4
26.452,2724757.911,0.00076,8e-05,0.00031,1,0,5.4
26.473,2724757.931,0.00015,8e-05,0.00031,1,0,5.4
26.492,2724757.95,0.00015,8e-05,0.00031,1,0,5.4
26.508,2724757.969,0.00076,8e-05,0.00031,1,0,5.4
26.53,2724757.988,-0.00046,-0.00053,-0.00031,1,0,5.4
26.548,2724758.007,0.00076,8e-05,0.00031,1,0,5.4
26.564,2724758.026,-0.00046,8e-05,-0.00031,1,0,5.4
26.585,2724758.045,0.00015,8e-05,0.00031,1,0,5.4
26.603,2724758.064,-0.00046,-0.00053,-0.00031,1,0,5.4
26.622,2724758.083,0.00076,8e-05,-0.00031,1,0,5.4
26.639,2724758.102,8e-05,8e-05,-0.00031,1,0,5.4
26.658,2724758.121,8e-05,8e-05,-0.00031,1,0,5.4
26.678,2724758.14,8e-05,8e-05,-0.00031,1,0,5.4
26.699,2724758.159,-0.00053,8e-05,0.00031,1,0,5.4
26.72,2724758.178,8e-05,0.00069,0.00031,1,0,5.4
26.74,2724758.197,-0.00115,8e-05,0.00031,1,0,5.4
26.759,2724758.216,0.00069,8e-05,0.00031,1,0,5.4
26.775,2724758.235,-0.00053,8e-05,0.00031,1,0,5.4
26.795,2724758.254,8e-05,8e-05,0.00031,1,0,5.4
26.816,2724758.273,-0.00061,8e-05,0.00031,1,0,5.4
26.831,2724758.292,0.0,8e-05,0.00031,1,0,5.4
26.851,2724758.311,0.0,8e-05,0.00031,1,0,5.4
26.869,2724758.33,0.0,-0.00053,0.00031,1,0,5.4
26.891,2724758.349,0.00061,-0.00053,0.00092,1,0,5.4
26.907,2724758.368,-0.00061,-0.00053,0.00031,1,0,5.4
26.93,2724758.387,0.00061,8e-05,0.00031,1,0,5.4
26.949,2724758.406,-0.00061,8e-05,0.00031,1,0,5.4
26.965,2724758.425,0.00061,8e-05,0.00031,1,0,5.4
26.983,2724758.444,-0.0,-0.00053,0.00031,1,0,5.4
27.003,2724758.463,-0.0,-0.00053,0.00031,1,0,5.4
27.021,2724758.482,0.0,8e-05,0.00031,1,0,5.4
27.038,2724758.501,0.00061,8e-05,0.00023,1,0,5.4
27.064,2724758.52,0.00061,8e-05,-0.00038,1,0,5.4
27.078,2724758.539,0.0,-0.00053,0.00084,1,0,5.4
27.097,2724758.558,0.0,8e-05,0.00023,1,0,5.4
27.115,2724758.577,-0.00061,8e-05,-0.00038,1,0,5.4
27.136,2724758.596,0.0,8e-05,-0.00038,1,0,5.4
27.155,2724758.615,-0.00061,8e-05,-0.00038,1,0,5.4
27.174,2724758.634,0.00061,8e-05,0.00015,1,0,5.4
27.197,2724758.653,-0.00061,8e-05,0.00015,1,0,5.4
27.213,2724758.672,0.0,-0.00053,-0.00046,1,0,5.4
27.23,2724758.691,0.0,8e-05,0.00015,1,0,5.4
27.25,2724758.71,0.0,8e-05,0.00015,1,0,5.4
27.269,2724758.729,0.00069,8e-05,0.00015,1,0,5.4
27.288,2724758.748,-0.00053,8e-05,0.00015,1,0,5.4
27.311,2724758.767,0.00069,8e-05,0.00015,1,0,5.4
27.328,2724758.786,8e-05,8e-05,8e-05,1,0,5.4
27.344,2724758.805,0.00061,0.00015,8e-05,1,0,5.4
27.363,2724758.824,0.0,-0.00046,8e-05,1,0,5.4
27.384,2724758.843,0.00061,0.00015,8e-05,1,0,5.4
27.403,2724758.863,-0.00061,-0.00046,-0.00053,1,0,5.4
27.422,2724758.882,0.0,0.00015,8e-05,1,0,5.4
27.438,2724758.901,0.0,0.00015,8e-05,1,0,5.4
27.459,2724758.92,0.0,-0.00046,8e-05,1,0,5.4
27.477,2724758.939,0.00061,0.00015,-0.00053,1,0,5.4
27.502,2724758.958,-0.00061,0.00015,-0.00053,1,0,5.4
27.516,2724758.977,0.00061,-0.00046,8e-05,1,0,5.4
27.539,2724758.996,-0.00061,-0.00046,-0.00053,1,0,5.4
27.555,2724759.015,0.00061,0.00015,0.00069,1,0,5.4
27.574,2724759.034,-0.00061,0.00015,8e-05,1,0,5.4
27.594,2724759.053,-0.0,-0.00046,-0.00053,1,0,5.4
27.615,2724759.072,-0.00122,0.00015,-0.00053,1,0,5.4
27.633,2724759.091,0.00061,-0.00046,-0.00053,1,0,5.4
27.65,2724759.11,-0.0,0.00015,8e-05,1,0,5.4
27.668,2724759.129,-0.00061,-0.00046,8e-05,1,0,5.4
27.688,2724759.148,-0.0,0.00015,8e-05,1,0,5.4
27.71,2724759.167,-0.00122,-0.00046,-0.00046,1,0,5.4
27.729,2724759.186,-0.0,-0.00046,-0.00046,1,0,5.4
27.748,2724759.205,-0.00122,0.00015,0.00015,1,0,5.4
27.763,2724759.224,-0.0,0.00015,0.00076,1,0,5.4
27.782,2724759.243,-0.00061,0.00015,0.00076,1,0,5.4
27.802,2724759.262,-0.0,0.00015,0.00015,1,0,5.4
27.823,2724759.281,-0.0,0.00015,0.00015,1,0,5.4
27.838,2724759.3,-0.0,0.00015,0.00015,1,0,5.4
27.861,2724759.319,-0.0,0.00015,0.00015,1,0,5.4
27.884,2724759.338,-0.00061,0.00015,0.00015,1,0,5.4
27.896,2724759.357,0.0,0.00023,0.00015,1,0,5.4
27.915,2724759.376,-0.00061,0.00023,0.00015,1,0,5.4
27.935,2724759.395,0.0,0.00023,0.00015,1,0,5.4
27.958,2724759.414,8e-05,0.00023,-0.00046,1,0,5.4
27.976,2724759.433,0.00069,0.00023,0.00015,1,0,5.4
27.992,2724759.452,-0.00053,0.00023,-0.00046,1,0,5.4
28.016,2724759.471,-0.00053,-0.00038,-0.00046,1,0,5.4
28.032,2724759.49,8e-05,0.00023,-0.00046,1,0,5.4
28.049,2724759.509,8e-05,0.00023,0.00015,1,0,5.4
28.068,2724759.528,0.00015,0.00023,0.00015,1,0,5.4
28.088,2724759.547,-0.00046,0.00023,0.00015,1,0,5.4
28.105,2724759.566,0.00015,0.00023,0.00015,1,0,5.4
28.126,2724759.585,-0.00046,0.00023,0.00015,1,0,5.4
28.142,2724759.604,0.00076,-0.00038,0.00015,1,0,5.4
28.161,2724759.623,0.00015,-0.00046,0.00015,1,0,5.4
28.181,2724759.642,0.00015,0.00015,0.00015,1,0,5.4
28.201,2724759.661,-0.00038,-0.00046,-0.00046,1,0,5.4
28.218,2724759.68,-0.00038,0.00015,-0.00046,1,0,5.4
28.24,2724759.699,0.00023,-0.00046,-0.00046,1,0,5.4
28.26,2724759.718,0.00023,0.00015,0.00015,1,0,5.4
28.28,2724759.737,0.00084,0.00015,0.00015,1,0,5.4
28.301,2724759.756,0.00023,0.00015,0.00015,1,0,5.4
28.314,2724759.775,0.00084,0.00015,0.00015,1,0,5.4
28.335,2724759.795,-0.00038,-0.00046,0.00015,1,0,5.4
28.357,2724759.814,0.00084,0.00015,-0.00046,1,0,5.4
28.376,2724759.833,0.00023,-0.00046,-0.00046,1,0,5.4
28.395,2724759.852,0.00023,0.00015,0.00015,1,0,5.4
28.415,2724759.871,0.00023,-0.00046,0.00015,1,0,5.4
28.431,2724759.89,0.00023,-0.00046,0.00015,1,0,5.4
28.448,2724759.909,0.00084,0.00015,0.00076,1,0,5.4
28.467,2724759.928,-0.00046,0.00015,0.00015,1,0,5.4
28.489,2724759.947,0.00015,0.00015,0.00015,1,0,5.4
28.506,2724759.966,0.00015,-0.00046,0.00015,1,0,5.4
28.528,2724759.985,0.00015,0.00015,0.00015,1,0,5.4
28.543,2724760.004,-0.00107,-0.00046,0.00015,1,0,5.4
28.561,2724760.023,0.00015,0.00015,-0.00046,1,0,5.4
28.582,2724760.042,0.00015,-0.00046,0.00015,1,0,5.4
28.601,2724760.061,0.00015,0.00015,0.00015,1,0,5.4
28.624,2724760.08,8e-05,0.00076,-0.00046,1,0,5.4
28.638,2724760.099,-0.00053,0.00015,-0.00046,1,0,5.4
28.658,2724760.118,8e-05,0.00076,-0.00046,1,0,5.4
28.682,2724760.137,-0.00115,0.00015,-0.00046,1,0,5.4
28.695,2724760.156,8e-05,-0.00046,0.00015,1,0,5.4
28.715,2724760.175,8e-05,0.00015,-0.00046,1,0,5.4
28.733,2724760.194,0.00069,0.00076,-0.00046,1,0,5.4
28.756,2724760.213,-0.00053,0.00084,-0.00046,1,0,5.4
28.771,2724760.232,8e-05,0.00023,-0.00046,1,0,5.4
28.794,2724760.251,8e-05,-0.00038,0.00015,1,0,5.4
28.81,2724760.27,8e-05,0.00023,0.00015,1,0,5.4
28.831,2724760.289,8e-05,0.00023,0.00015,1,0,5.4
28.847,2724760.308,-0.00053,0.00015,0.00015,1,0,5.4
28.866,2724760.327,0.00069,0.00015,0.00015,1,0,5.4
28.887,2724760.346,8e-05,0.00015,-0.00046,1,0,5.4
28.906,2724760.365,0.00069,0.00015,-0.00046,1,0,5.4
28.927,2724760.384,-0.00053,0.00015,-0.00046,1,0,5.4
28.942,2724760.403,8e-05,0.00015,-0.00046,1,0,5.4
28.961,2724760.422,8e-05,0.00015,0.00015,1,0,5.4
28.982,2724760.441,8e-05,-0.00046,0.00015,1,0,5.4
28.999,2724760.46,8e-05,0.00015,0.00023,1,0,5.4
29.018,2724760.479,-0.00053,0.00015,0.00084,1,0,5.4
29.038,2724760.498,8e-05,0.00015,0.00084,1,0,5.4
29.082,2724760.517,-0.00053,0.00015,0.00084,1,0,5.4
29.082,2724760.536,0.00069,8e-05,0.00023,1,0,5.4
29.097,2724760.555,-0.00053,8e-05,0.00023,1,0,5.4
29.112,2724760.574,8e-05,8e-05,0.00023,1,0,5.4
29.133,2724760.593,-0.00053,8e-05,0.00023,1,0,5.4
29.152,2724760.612,8e-05,8e-05,0.00023,1,0,5.4
29.171,2724760.631,8e-05,-0.00053,0.00023,1,0,5.4
29.19,2724760.65,-0.00053,8e-05,0.00023,1,0,5.4
29.212,2724760.669,-0.00053,8e-05,0.00023,1,0,5.4
29.231,2724760.688,-0.00115,-0.00053,-0.00038,1,0,5.4
29.249,2724760.707,8e-05,-0.00061,-0.00038,1,0,5.4
29.266,2724760.727,-0.00053,0.0,0.00023,1,0,5.4
29.289,2724760.746,0.0013,0.0,0.00023,1,0,5.4
29.308,2724760.765,8e-05,-0.00061,0.00023,1,0,5.4
29.324,2724760.784,0.0013,0.0,0.00023,1,0,5.4
29.34,2724760.803,0.00015,-0.00061,-0.00038,1,0,5.4
29.36,2724760.822,0.00015,0.0,-0.00046,1,0,5.4
29.379,2724760.841,0.00015,0.0,0.00015,1,0,5.4
29.4,2724760.86,-0.00046,8e-05,-0.00046,1,0,5.4
29.419,2724760.879,0.00015,8e-05,0.00015,1,0,5.4
29.438,2724760.898,-0.00046,8e-05,-0.00046,1,0,5.4
29.456,2724760.917,0.00076,8e-05,0.00015,1,0,5.4
29.479,2724760.936,-0.00107,8e-05,0.00015,1,0,5.4
29.497,2724760.955,0.00015,0.00069,0.00015,1,0,5.4
29.513,2724760.974,-0.00107,8e-05,0.00015,1,0,5.4
29.531,2724760.993,0.00015,8e-05,0.00015,1,0,5.4
29.55,2724761.012,-0.00046,8e-05,8e-05,1,0,5.4
29.574,2724761.031,0.00015,8e-05,8e-05,1,0,5.4
29.589,2724761.05,0.00076,-0.00053,8e-05,1,0,5.4
29.611,2724761.069,-0.00046,8e-05,8e-05,1,0,5.4
29.627,2724761.088,0.00015,-0.00053,8e-05,1,0,5.4
29.652,2724761.107,-0.00107,8e-05,8e-05,1,0,5.4
29.666,2724761.126,0.00015,-0.00053,-0.00053,1,0,5.4
29.687,2724761.145,-0.00046,-0.00053,8e-05,1,0,5.4
29.702,2724761.164,0.00015,8e-05,8e-05,1,0,5.4
29.722,2724761.183,-0.00046,8e-05,8e-05,1,0,5.4
29.741,2724761.202,0.00015,0.00015,-0.00053,1,0,5.4
29.759,2724761.221,0.00015,-0.00046,-0.00053,1,0,5.4
29.778,2724761.24,-0.00046,0.00015,8e-05,1,0,5.4
29.797,2724761.259,0.00076,0.00015,8e-05,1,0,5.4
29.818,2724761.278,-0.00046,0.00015,0.00015,1,0,5.4
29.838,2724761.297,0.00015,0.00015,0.00015,1,0,5.4
29.861,2724761.316,-0.00046,0.00015,0.00015,1,0,5.4
29.875,2724761.335,0.00076,-0.00046,0.00015,1,0,5.4
29.899,2724761.354,-0.00046,-0.00046,0.00076,1,0,5.4
29.913,2724761.373,0.00076,0.00015,0.00015,1,0,5.4
29.931,2724761.392,0.00023,0.00015,0.00015,1,0,5.4
29.954,2724761.411,-0.00038,0.00015,-0.00046,1,0,5.4
29.97,2724761.43,0.00023,0.00015,0.00015,1,0,5.4
29.988,2724761.449,0.00023,-0.00046,0.00015,1,0,5.4
30.01,2724761.468,0.00023,0.00015,0.00076,1,0,5.4
30.03,2724761.487,-0.00038,0.00015,0.00015,1,0,5.4
30.049,2724761.506,0.00084,0.00076,0.00015,1,0,5.4
30.065,2724761.525,0.00023,-0.00046,0.00015,1,0,5.4
30.09,2724761.544,0.00023,0.00015,-0.00107,1,0,5.4
30.106,2724761.563,-0.00038,0.00015,-0.00053,1,0,5.4
30.122,2724761.582,0.00023,0.00015,-0.00053,1,0,5.4
30.139,2724761.601,-0.00038,-0.00046,-0.00053,1,0,5.4
30.158,2724761.62,-0.00038,-0.00046,-0.00053,1,0,5.4
30.179,2724761.639,0.00023,0.00015,8e-05,1,0,5.4
30.197,2724761.659,0.00023,0.00015,8e-05,1,0,5.4
30.217,2724761.678,0.00084,0.00015,8e-05,1,0,5.4
30.236,2724761.697,-0.00038,0.00015,0.00069,1,0,5.4
30.259,2724761.716,0.00084,0.00015,8e-05,1,0,5.4
30.279,2724761.735,-0.00046,0.00015,8e-05,1,0,5.4
30.294,2724761.754,0.00076,0.00015,8e-05,1,0,5.4
30.313,2724761.773,-0.00046,0.00015,0.00069,1,0,5.4
30.333,2724761.792,-0.00046,0.00015,0.00069,1,0,5.4
30.351,2724761.811,-0.00046,0.00015,8e-05,1,0,5.4
30.369,2724761.83,-0.00046,0.00015,-0.00053,1,0,5.4
30.392,2724761.849,0.00015,0.00015,8e-05,1,0,5.4
30.41,2724761.868,-0.00046,-0.00046,-0.00053,1,0,5.4
30.429,2724761.887,0.00076,0.00015,8e-05,1,0,5.4
30.447,2724761.906,-0.00046,-0.00046,-0.00053,1,0,5.4
30.464,2724761.925,0.00015,0.00015,8e-05,1,0,5.4
30.484,2724761.944,-0.00046,-0.00046,8e-05,1,0,5.4
30.503,2724761.963,0.00015,0.00015,8e-05,1,0,5.4
30.521,2724761.982,0.00015,0.00015,-0.00053,1,0,5.4
30.539,2724762.001,-0.00046,0.00015,8e-05,1,0,5.4
30.558,2724762.02,0.00015,0.00015,8e-05,1,0,5.4
30.581,2724762.039,-0.00046,0.00015,-0.00053,1,0,5.4
30.598,2724762.058,0.00076,0.00015,8e-05,1,0,5.4
30.617,2724762.077,-0.00046,-0.00046,-0.00053,1,0,5.4
30.636,2724762.096,0.00015,0.00015,-0.00053,1,0,5.4
30.655,2724762.115,-0.00046,-0.00046,-0.00053,1,0,5.4
30.674,2724762.134,-0.00046,0.00015,-0.00046,1,0,5.4
30.695,2724762.153,-0.00046,-0.00046,0.00015,1,0,5.4
30.715,2724762.172,0.00076,0.00015,0.00015,1,0,5.4
30.729,2724762.191,0.00015,0.00015,-0.00046,1,0,5.4
30.75,2724762.21,-0.00107,0.00015,-0.00046,1,0,5.4
30.772,2724762.229,0.00015,0.00015,0.00015,1,0,5.4
30.788,2724762.248,0.00015,0.00015,0.00015,1,0,5.4
30.808,2724762.267,0.00076,0.00015,-0.00046,1,0,5.4
30.825,2724762.286,-0.00107,0.00015,0.00015,1,0,5.4
30.843,2724762.305,0.00023,-0.00046,-0.00046,1,0,5.4
30.863,2724762.324,-0.00038,0.00015,-0.00046,1,0,5.4
30.883,2724762.343,0.00023,0.00015,0.00015,1,0,5.4
30.902,2724762.362,-0.00038,-0.00046,-0.00046,1,0,5.4
30.92,2724762.381,0.00023,-0.00046,0.00076,1,0,5.4
30.942,2724762.4,0.00023,0.00076,0.00015,1,0,5.4
30.962,2724762.419,-0.00038,-0.00046,-0.00046,1,0,5.4
30.982,2724762.438,0.00084,-0.00046,0.00023,1,0,5.4
31.0,2724762.457,-0.00038,-0.00046,-0.00038,1,0,5.4
31.016,2724762.476,0.00023,0.00015,-0.00038,1,0,5.4
31.037,2724762.495,-0.00038,-0.00046,0.00084,1,0,5.4
31.077,2724762.514,0.00084,0.00015,0.00084,1,0,5.4
31.078,2724762.533,-0.00038,0.00015,0.00023,1,0,5.4
31.091,2724762.552,0.00023,0.00015,0.00023,1,0,5.4
31.111,2724762.571,0.00023,0.00015,-0.00038,1,0,5.4
31.128,2724762.591,0.00023,-0.00046,-0.00038,1,0,5.4
31.151,2724762.61,0.00084,0.00015,0.00023,1,0,5.4
31.167,2724762.629,-0.00038,-0.00046,-0.00038,1,0,5.4
31.187,2724762.648,0.00084,-0.00046,0.00023,1,0,5.4
31.205,2724762.667,-0.00038,0.00015,0.00023,1,0,5.4
31.225,2724762.686,0.00023,0.00015,0.00023,1,0,5.4
31.243,2724762.705,-0.00038,0.00015,0.00023,1,0,5.4
31.263,2724762.724,0.00023,0.00076,-0.00038,1,0,5.4
31.282,2724762.743,-0.00038,0.00015,-0.00038,1,0,5.4
31.301,2724762.762,0.00023,-0.00046,0.00023,1,0,5.4
31.319,2724762.781,-0.00038,-0.00038,0.00023,1,0,5.4
31.337,2724762.8,0.00023,0.00023,-0.00038,1,0,5.4
31.358,2724762.819,0.00023,-0.00038,-0.00038,1,0,5.4
31.379,2724762.838,-0.00038,-0.00038,0.00023,1,0,5.4
31.396,2724762.857,0.00084,0.00023,0.00023,1,0,5.4
31.414,2724762.876,-0.00046,0.00023,-0.00038,1,0,5.4
31.434,2724762.895,0.00076,-0.00038,0.00023,1,0,5.4
31.455,2724762.914,-0.00046,-0.00038,0.00023,1,0,5.4
31.476,2724762.933,-0.00046,0.00023,0.00023,1,0,5.4
31.495,2724762.952,-0.00046,-0.00038,-0.00038,1,0,5.4
31.512,2724762.971,0.00015,0.00023,-0.00038,1,0,5.4
31.529,2724762.99,0.00015,0.00084,0.00023,1,0,5.4
31.549,2724763.009,-0.00107,0.00084,-0.00038,1,0,5.4
31.568,2724763.028,0.00015,0.00023,0.00023,1,0,5.4
31.586,2724763.047,-0.00046,0.00023,0.00023,1,0,5.4
31.609,2724763.066,0.00015,0.00023,0.00023,1,0,5.4
31.627,2724763.085,-0.00046,0.00023,-0.00038,1,0,5.4
31.643,2724763.104,0.00076,-0.00038,0.00023,1,0,5.4
31.662,2724763.123,-0.00046,0.00023,-0.00038,1,0,5.4
31.681,2724763.142,0.00015,0.00023,0.00023,1,0,5.4
31.7,2724763.161,0.00076,0.00023,0.00023,1,0,5.4
31.719,2724763.18,0.00015,0.00023,0.00023,1,0,5.4
31.737,2724763.199,0.00015,0.00023,0.00023,1,0,5.4
31.759,2724763.218,-0.00046,0.00023,0.00023,1,0,5.4
31.782,2724763.237,0.00015,0.00023,0.00023,1,0,5.4
31.801,2724763.256,0.00015,0.00023,-0.00038,1,0,5.4
31.815,2724763.275,0.00015,0.00015,-0.00038,1,0,5.4
31.834,2724763.294,0.00015,-0.00046,0.00023,1,0,5.4
31.857,2724763.313,-0.00046,0.00015,-0.00038,1,0,5.4
31.875,2724763.332,0.00023,0.00015,-0.00038,1,0,5.4
31.894,2724763.351,0.00023,-0.00046,-0.00038,1,0,5.4
31.913,2724763.37,0.00023,-0.00046,0.00023,1,0,5.4
31.933,2724763.389,0.00023,0.00015,-0.00038,1,0,5.4
31.948,2724763.408,0.00084,0.00015,0.00023,1,0,5.4
31.968,2724763.427,-0.00038,0.00015,0.00023,1,0,5.4
31.987,2724763.446,0.00023,0.00015,0.00023,1,0,5.4
32.006,2724763.465,0.00023,0.00015,-0.00038,1,0,5.4
32.026,2724763.484,0.00015,0.00015,-0.00038,1,0,5.4
32.042,2724763.503,-0.00046,0.00015,0.00023,1,0,5.4
32.062,2724763.523,0.00015,8e-05,0.00023,1,0,5.4
32.082,2724763.542,0.00015,8e-05,0.00023,1,0,5.4
32.103,2724763.561,-0.00046,0.00069,0.00023,1,0,5.4
32.118,2724763.58,0.00015,8e-05,-0.00038,1,0,5.4
32.138,2724763.599,-0.00107,8e-05,-0.00038,1,0,5.4
32.158,2724763.618,0.00015,8e-05,0.00084,1,0,5.4
32.177,2724763.637,0.00015,8e-05,0.00084,1,0,5.4
32.196,2724763.656,0.00076,8e-05,0.00023,1,0,5.4
32.217,2724763.675,-0.00046,8e-05,0.00023,1,0,5.4
32.238,2724763.694,-0.00046,8e-05,0.00023,1,0,5.4
32.256,2724763.713,0.00015,8e-05,0.00023,1,0,5.4
32.274,2724763.732,0.00015,8e-05,0.00023,1,0,5.4
32.295,2724763.751,0.00015,-0.00053,0.00023,1,0,5.4
32.309,2724763.77,-0.00046,8e-05,0.00023,1,0,5.4
32.332,2724763.789,0.00015,8e-05,-0.00038,1,0,5.4
32.347,2724763.808,-0.00046,8e-05,0.00023,1,0,5.4
32.367,2724763.827,0.00076,8e-05,-0.00038,1,0,5.4
32.388,2724763.846,-0.00046,-0.00053,0.00023,1,0,5.4
32.408,2724763.865,0.00015,8e-05,0.00023,1,0,5.4
32.423,2724763.884,-0.00046,-0.00053,0.00023,1,0,5.4
32.441,2724763.903,0.00015,8e-05,0.00023,1,0,5.4
32.46,2724763.922,-0.00046,8e-05,-0.00038,1,0,5.4
32.48,2724763.941,-0.00046,8e-05,-0.00046,1,0,5.4
32.501,2724763.96,0.00015,8e-05,-0.00046,1,0,5.4
32.517,2724763.979,-0.00046,-0.00053,0.00015,1,0,5.4
32.54,2724763.998,0.00015,8e-05,0.00015,1,0,5.4
32.558,2724764.017,-0.00107,8e-05,0.00015,1,0,5.4
32.581,2724764.036,0.00076,8e-05,0.00015,1,0,5.4
32.599,2724764.055,-0.00046,-0.00053,0.00015,1,0,5.4
32.617,2724764.074,0.00137,-0.00053,0.00015,1,0,5.4
32.633,2724764.093,0.00076,-0.00053,0.00015,1,0,5.4
32.652,2724764.112,0.00015,8e-05,-0.00046,1,0,5.4
32.671,2724764.131,-0.00046,8e-05,-0.00046,1,0,5.4
32.689,2724764.15,-0.00038,8e-05,0.00015,1,0,5.4
32.71,2724764.169,0.00084,8e-05,0.00015,1,0,5.4
32.726,2724764.188,-0.00038,8e-05,0.00015,1,0,5.4
32.746,2724764.207,0.00023,8e-05,-0.00046,1,0,5.4
32.766,2724764.226,-0.00038,-0.00053,0.00015,1,0,5.4
32.785,2724764.245,0.00023,8e-05,0.00015,1,0,5.4
32.804,2724764.264,-0.00099,-0.00053,0.00015,1,0,5.4
32.826,2724764.283,0.00023,8e-05,0.00015,1,0,5.4
32.841,2724764.302,0.00023,8e-05,0.00015,1,0,5.4
32.859,2724764.321,0.00023,8e-05,0.00015,1,0,5.4
32.879,2724764.34,0.00023,0.00015,0.00015,1,0,5.4
32.901,2724764.359,-0.00038,0.00015,0.00015,1,0,5.4
32.917,2724764.378,-0.00038,0.00015,0.00015,1,0,5.4
32.941,2724764.397,-0.00038,-0.00046,-0.00046,1,0,5.4
32.96,2724764.416,0.00084,0.00015,-0.00046,1,0,5.4
32.975,2724764.435,-0.00038,-0.00046,0.00015,1,0,5.4
32.994,2724764.455,0.00084,-0.00046,0.00015,1,0,5.4
33.015,2724764.474,-0.00038,0.00015,0.00076,1,0,5.4
33.032,2724764.493,0.00023,-0.00046,0.00015,1,0,5.4
33.051,2724764.512,0.00023,0.00015,-0.00046,1,0,5.4
33.079,2724764.531,0.00023,0.00015,0.00015,1,0,5.4
33.088,2724764.55,0.00023,0.00015,-0.00046,1,0,5.4
33.107,2724764.569,-0.00038,0.00015,0.00015,1,0,5.4
33.127,2724764.588,0.00084,-0.00046,0.00015,1,0,5.4
33.146,2724764.607,0.00015,-0.00046,0.00015,1,0,5.4
33.165,2724764.626,0.00076,-0.00046,-0.00046,1,0,5.4
33.185,2724764.645,-0.00046,0.00015,0.00015,1,0,5.4
33.204,2724764.664,0.00015,-0.00046,0.00076,1,0,5.4
33.222,2724764.683,-0.00046,0.00015,0.00015,1,0,5.4
33.24,2724764.702,0.00015,0.00015,0.00015,1,0,5.4
33.26,2724764.721,0.00015,0.00015,0.00015,1,0,5.4
33.278,2724764.74,-0.00046,-0.00038,0.00015,1,0,5.4
33.301,2724764.759,0.00076,0.00023,0.00015,1,0,5.4
33.318,2724764.778,-0.00046,-0.00038,0.00015,1,0,5.4
33.34,2724764.797,0.00015,0.00023,0.00015,1,0,5.4
33.36,2724764.816,-0.00046,-0.00038,-0.00046,1,0,5.4
33.375,2724764.835,0.00076,0.00023,0.00015,1,0,5.4
33.399,2724764.854,0.00015,0.00023,8e-05,1,0,5.4
33.414,2724764.873,0.00015,0.00023,8e-05,1,0,5.4
33.433,2724764.892,0.00015,0.00023,8e-05,1,0,5.4
33.451,2724764.911,-0.00046,-0.00038,-0.00053,1,0,5.4
33.47,2724764.93,0.00015,-0.00038,8e-05,1,0,5.4
33.492,2724764.949,-0.00107,-0.00038,8e-05,1,0,5.4
33.508,2724764.968,0.00015,0.00023,8e-05,1,0,5.4
33.526,2724764.987,-0.00046,0.00023,8e-05,1,0,5.4
33.548,2724765.006,0.00076,-0.00038,-0.00053,1,0,5.4
33.565,2724765.025,-0.00046,-0.00038,8e-05,1,0,5.4
33.583,2724765.044,0.00076,0.00023,8e-05,1,0,5.4
33.603,2724765.063,0.00015,-0.00038,-0.00053,1,0,5.4
33.621,2724765.082,0.00076,0.00023,8e-05,1,0,5.4
33.641,2724765.101,0.00015,0.00023,8e-05,1,0,5.4
33.659,2724765.12,0.00015,-0.00038,8e-05,1,0,5.4
33.681,2724765.139,8e-05,0.00084,8e-05,1,0,5.4
33.7,2724765.158,-0.00115,0.00084,8e-05,1,0,5.4
33.718,2724765.177,8e-05,0.00084,-0.00053,1,0,5.4
33.738,2724765.196,-0.00115,0.00023,8e-05,1,0,5.4
33.754,2724765.215,0.00069,0.00023,-0.00053,1,0,5.4
33.777,2724765.234,8e-05,0.00023,-0.00053,1,0,5.4
33.798,2724765.253,8e-05,0.00023,0.00069,1,0,5.4
33.816,2724765.272,-0.00053,0.00023,8e-05,1,0,5.4
33.83,2724765.291,-0.00053,0.00023,8e-05,1,0,5.4
33.85,2724765.31,8e-05,0.00023,8e-05,1,0,5.4
33.868,2724765.329,-0.00053,0.00023,8e-05,1,0,5.4
33.891,2724765.348,0.00076,0.00023,8e-05,1,0,5.4
33.909,2724765.367,-0.00046,-0.00038,-0.00053,1,0,5.4
33.927,2724765.387,0.00076,-0.00038,8e-05,1,0,5.4
33.945,2724765.406,-0.00046,0.00023,8e-05,1,0,5.4
33.964,2724765.425,-0.00046,0.00023,8e-05,1,0,5.4
33.983,2724765.444,0.00015,0.00015,-0.00053,1,0,5.4
34.003,2724765.463,-0.00046,-0.00046,-0.00115,1,0,5.4
34.025,2724765.482,-0.00046,0.00015,0.00015,1,0,5.4
34.041,2724765.501,-0.00107,-0.00046,-0.00046,1,0,5.4
34.058,2724765.52,0.00015,0.00076,-0.00046,1,0,5.4
34.078,2724765.539,0.00015,0.00015,0.00015,1,0,5.4
34.104,2724765.558,0.00137,0.00015,0.00015,1,0,5.4
34.115,2724765.577,0.00015,0.00015,0.00015,1,0,5.4
34.136,2724765.596,0.00015,0.00015,0.00015,1,0,5.4
34.155,2724765.615,-0.00046,0.00015,0.00015,1,0,5.4
34.173,2724765.634,0.00015,8e-05,0.00015,1,0,5.4
34.193,2724765.653,-0.00046,8e-05,0.00015,1,0,5.4
34.216,2724765.672,-0.00046,8e-05,0.00015,1,0,5.4
34.23,2724765.691,-0.00046,8e-05,0.00015,1,0,5.4
34.25,2724765.71,-0.00046,-0.00053,0.00015,1,0,5.4
34.269,2724765.729,0.00076,0.00069,0.00015,1,0,5.4
34.291,2724765.748,-0.00038,8e-05,-0.00046,1,0,5.4
34.307,2724765.767,0.00084,8e-05,-0.00046,1,0,5.4
34.329,2724765.786,-0.00038,8e-05,-0.00046,1,0,5.4
34.344,2724765.805,0.00023,8e-05,-0.00046,1,0,5.4
34.363,2724765.824,-0.00099,-0.00053,0.00015,1,0,5.4
34.383,2724765.843,-0.00038,8e-05,-0.00046,1,0,5.4
34.401,2724765.862,-0.00038,-0.00053,0.00015,1,0,5.4
34.425,2724765.881,0.00084,-0.00053,0.00015,1,0,5.4
34.44,2724765.9,0.00023,8e-05,0.00076,1,0,5.4
34.461,2724765.919,-0.00038,8e-05,0.00015,1,0,5.4
34.481,2724765.938,0.00084,8e-05,0.00015,1,0,5.4
34.5,2724765.957,0.00023,8e-05,0.00023,1,0,5.4
34.516,2724765.976,0.00084,-0.00053,-0.00038,1,0,5.4
34.539,2724765.995,-0.00038,-0.00053,0.00023,1,0,5.4
34.555,2724766.014,0.00084,8e-05,0.00023,1,0,5.4
34.572,2724766.033,-0.00099,8e-05,-0.00099,1,0,5.4
34.591,2724766.052,0.00023,-0.00053,-0.00038,1,0,5.4
34.611,2724766.071,0.00084,-0.00053,0.00023,1,0,5.4
34.628,2724766.09,-0.00038,0.00069,0.00023,1,0,5.4
34.65,2724766.109,0.00084,8e-05,0.00023,1,0,5.4
34.667,2724766.128,-0.00038,8e-05,-0.00038,1,0,5.4
34.69,2724766.147,0.00023,-0.00053,-0.00046,1,0,5.4
34.707,2724766.166,-0.00038,-0.00053,0.00015,1,0,5.4
34.725,2724766.185,0.00084,8e-05,0.00015,1,0,5.4
34.745,2724766.204,0.00023,-0.00053,0.00015,1,0,5.4
34.761,2724766.223,0.00084,-0.00053,-0.00038,1,0,5.4
34.783,2724766.242,0.00023,-0.00053,-0.00038,1,0,5.4
34.802,2724766.261,0.00023,8e-05,0.00023,1,0,5.4
34.819,2724766.28,-0.00038,-0.00046,0.00023,1,0,5.4
34.841,2724766.299,-0.00046,0.00015,0.00023,1,0,5.4
34.859,2724766.319,0.00076,0.00015,0.00023,1,0,5.4
34.879,2724766.338,-0.00046,-0.00046,0.00023,1,0,5.4
34.899,2724766.357,0.00015,0.00015,-0.00038,1,0,5.4
34.914,2724766.376,0.00015,-0.00046,0.00023,1,0,5.4
34.934,2724766.395,0.00076,0.00015,0.00023,1,0,5.4
34.954,2724766.414,0.00076,0.00015,-0.00038,1,0,5.4
34.975,2724766.433,0.00076,0.00023,0.00023,1,0,5.4
34.992,2724766.452,-0.00046,0.00023,0.00023,1,0,5.4
35.014,2724766.471,-0.00046,0.00023,0.00023,1,0,5.4
35.028,2724766.49,-0.00053,0.00023,0.00023,1,0,5.4
35.051,2724766.509,-0.00053,0.00023,0.00023,1,0,5.4
35.081,2724766.528,0.00069,0.00023,0.00023,1,0,5.4
35.087,2724766.547,8e-05,-0.00038,-0.00038,1,0,5.4
35.105,2724766.566,8e-05,0.00023,-0.00038,1,0,5.4
35.124,2724766.585,-0.00053,-0.00038,0.00023,1,0,5.4
35.143,2724766.604,0.00069,0.00023,-0.00038,1,0,5.4
35.161,2724766.623,-0.00053,0.00023,0.00023,1,0,5.4
35.181,2724766.642,8e-05,-0.00038,0.00023,1,0,5.4
35.201,2724766.661,8e-05,0.00023,0.00023,1,0,5.4
35.219,2724766.68,8e-05,0.00023,0.00023,1,0,5.4
35.239,2724766.699,0.00069,-0.00038,0.00023,1,0,5.4
35.262,2724766.718,8e-05,0.00023,0.00023,1,0,5.4
35.283,2724766.737,0.00122,0.00023,0.00023,1,0,5.4
35.299,2724766.756,0.0,-0.00038,0.00023,1,0,5.4
35.315,2724766.775,0.0,0.00023,0.00023,1,0,5.4
35.335,2724766.794,-0.00061,-0.00038,0.00023,1,0,5.4
35.352,2724766.813,-0.00061,0.00023,-0.00046,1,0,5.4
35.375,2724766.832,-0.00061,-0.00038,-0.00046,1,0,5.4
35.39,2724766.851,-0.00061,0.00023,0.00015,1,0,5.4
35.41,2724766.87,0.0,0.00023,-0.00046,1,0,5.4
35.432,2724766.889,-0.00061,0.00023,-0.00046,1,0,5.4
35.448,2724766.908,0.00061,0.00084,0.00015,1,0,5.4
35.47,2724766.927,-0.00061,0.00023,0.00015,1,0,5.4
35.489,2724766.946,0.00061,0.00084,0.00015,1,0,5.4
35.507,2724766.965,-0.00061,-0.00038,0.00015,1,0,5.4
35.525,2724766.984,0.00061,0.00023,0.00015,1,0,5.4
35.542,2724767.003,0.0,-0.00038,0.00076,1,0,5.4
35.562,2724767.022,-0.00061,0.00023,0.00015,1,0,5.4
35.58,2724767.041,0.0,-0.00046,0.00015,1,0,5.4
35.6,2724767.06,0.0,0.00015,0.00015,1,0,5.4
35.619,2724767.079,0.00069,0.00015,-0.00046,1,0,5.4
35.642,2724767.098,-0.00053,-0.00046,-0.00046,1,0,5.4
35.657,2724767.117,8e-05,0.00015,-0.00046,1,0,5.4
35.676,2724767.136,8e-05,0.00015,0.00015,1,0,5.4
35.695,2724767.155,8e-05,0.00015,0.00015,1,0,5.4
35.712,2724767.174,-0.00053,-0.00046,0.00076,1,0,5.4
35.732,2724767.193,8e-05,0.00015,-0.00046,1,0,5.4
35.751,2724767.212,8e-05,0.00015,0.00015,1,0,5.4
35.77,2724767.231,-0.00053,0.00015,0.00015,1,0,5.4
35.79,2724767.25,8e-05,0.00015,0.00015,1,0,5.4
35.809,2724767.27,-0.00053,-0.00046,0.00076,1,0,5.4
35.828,2724767.289,8e-05,0.00015,-0.00046,1,0,5.4
35.846,2724767.308,-0.00053,0.00015,0.00015,1,0,5.4
35.866,2724767.327,8e-05,0.00015,0.00015,1,0,5.4
35.885,2724767.346,-0.00053,-0.00046,0.00015,1,0,5.4
35.904,2724767.365,8e-05,-0.00046,-0.00046,1,0,5.4
35.924,2724767.384,-0.00053,0.00015,0.00015,1,0,5.4
35.943,2724767.403,8e-05,-0.00046,0.00015,1,0,5.4
35.959,2724767.422,8e-05,0.00015,0.00015,1,0,5.4
35.979,2724767.441,-0.00053,0.00076,0.00015,1,0,5.4
36.0,2724767.46,8e-05,0.00015,0.00015,1,0,5.4
36.018,2724767.479,-0.00053,0.00015,0.00076,1,0,5.4
36.037,2724767.498,0.00015,0.00015,-0.00046,1,0,5.4
36.056,2724767.517,-0.00046,0.00015,8e-05,1,0,5.4
36.076,2724767.536,0.00076,0.00015,8e-05,1,0,5.4
36.1,2724767.555,-0.00046,-0.00046,-0.00053,1,0,5.4
36.112,2724767.574,0.00076,0.00015,-0.00053,1,0,5.4
36.133,2724767.593,0.00015,-0.00046,8e-05,1,0,5.4
36.151,2724767.612,0.00015,0.00015,8e-05,1,0,5.4
36.17,2724767.631,0.00076,-0.00046,8e-05,1,0,5.4
36.189,2724767.65,0.00015,0.00015,-0.00053,1,0,5.4
36.208,2724767.669,-0.00046,0.00015,-0.00053,1,0,5.4
36.227,2724767.688,-0.00107,-0.00046,-0.00053,1,0,5.4
36.245,2724767.707,-0.00046,-0.00046,8e-05,1,0,5.4
36.264,2724767.726,-0.00107,0.00015,8e-05,1,0,5.4
36.284,2724767.745,-0.00046,0.00015,8e-05,1,0,5.4
36.304,2724767.764,-0.00046,0.00015,8e-05,1,0,5.4
36.323,2724767.783,0.00015,0.00015,8e-05,1,0,5.4
36.34,2724767.802,0.00084,0.00015,8e-05,1,0,5.4
36.359,2724767.821,-0.00038,0.00015,8e-05,1,0,5.4
36.379,2724767.84,0.00023,0.00015,-0.00053,1,0,5.4
36.397,2724767.859,-0.00038,0.00015,-0.00053,1,0,5.4
36.422,2724767.878,0.00084,0.00015,-0.00053,1,0,5.4
36.441,2724767.897,-0.00038,-0.00046,8e-05,1,0,5.4
36.456,2724767.916,0.00023,0.00015,8e-05,1,0,5.4
36.475,2724767.935,-0.00038,-0.00046,0.00015,1,0,5.4
36.495,2724767.954,0.00023,0.00015,-0.00046,1,0,5.4
36.512,2724767.973,-0.00099,0.00015,-0.00046,1,0,5.4
36.531,2724767.992,-0.00038,0.00015,-0.00046,1,0,5.4
36.555,2724768.011,0.00023,-0.00046,-0.00046,1,0,5.4
36.57,2724768.03,-0.00038,0.00015,0.00015,1,0,5.4
36.589,2724768.049,0.00023,0.00015,0.00015,1,0,5.4
36.611,2724768.068,0.00023,0.00015,0.00015,1,0,5.4
36.63,2724768.087,0.00084,0.00015,-0.00046,1,0,5.4
36.645,2724768.106,-0.00099,-0.00046,-0.00046,1,0,5.4
36.665,2724768.125,0.00084,0.00015,0.00015,1,0,5.4
36.685,2724768.144,-0.00038,0.00015,0.00015,1,0,5.4
36.708,2724768.163,0.00023,0.00015,0.00023,1,0,5.4
36.722,2724768.182,-0.00038,0.00015,0.00023,1,0,5.4
36.74,2724768.202,0.00031,0.00015,-0.00038,1,0,5.4
36.762,2724768.221,0.00031,0.00015,-0.00038,1,0,5.4
36.781,2724768.24,-0.00031,-0.00046,0.00023,1,0,5.4
36.801,2724768.259,0.00031,0.00015,-0.00038,1,0,5.4
36.819,2724768.278,-0.00092,0.00015,0.00023,1,0,5.4
36.837,2724768.297,0.00092,0.00015,0.00023,1,0,5.4
36.86,2724768.316,-0.00031,0.00015,0.00023,1,0,5.4
36.875,2724768.335,0.00092,-0.00046,0.00023,1,0,5.4
36.898,2724768.354,0.00031,0.00015,-0.00038,1,0,5.4
36.912,2724768.373,0.00031,0.00015,-0.00038,1,0,5.4
36.932,2724768.392,0.00031,0.00015,-0.00038,1,0,5.4
36.95,2724768.411,-0.00031,0.00015,0.00084,1,0,5.4
36.969,2724768.43,0.00031,-0.00046,0.00023,1,0,5.4
36.993,2724768.449,0.00031,-0.00046,-0.00038,1,0,5.4
37.008,2724768.468,0.00092,0.00015,-0.00038,1,0,5.4
37.026,2724768.487,-0.00031,0.00015,-0.00038,1,0,5.4
37.048,2724768.506,0.00023,0.00015,0.00084,1,0,5.4
37.066,2724768.525,0.00023,-0.00046,0.00031,1,0,5.4
37.082,2724768.544,0.00023,0.00076,-0.00031,1,0,5.4
37.101,2724768.563,-0.00038,0.00015,-0.00038,1,0,5.4
37.122,2724768.582,0.00084,0.00076,-0.00038,1,0,5.4
37.139,2724768.601,0.00023,-0.00046,0.00023,1,0,5.4
37.158,2724768.62,-0.00038,0.00015,-0.00038,1,0,5.4
37.177,2724768.639,0.00084,-0.00046,-0.00038,1,0,5.4
37.196,2724768.658,0.00023,-0.00046,0.00023,1,0,5.4
37.217,2724768.677,0.00023,0.00015,-0.00038,1,0,5.4
37.234,2724768.696,0.00023,0.00015,0.00023,1,0,5.4
37.253,2724768.715,0.00015,-0.00046,0.00023,1,0,5.4
37.274,2724768.734,-0.00046,0.00015,-0.00038,1,0,5.4
37.295,2724768.753,0.00015,0.00076,0.00023,1,0,5.4
37.314,2724768.772,0.00015,0.00015,0.00023,1,0,5.4
37.331,2724768.791,-0.00046,0.00015,0.00023,1,0,5.4
37.348,2724768.81,0.00015,0.00015,0.00023,1,0,5.4
37.369,2724768.829,-0.00046,-0.00046,0.00023,1,0,5.4
37.39,2724768.848,0.00076,0.00015,-0.00038,1,0,5.4
37.406,2724768.867,-0.00046,-0.00046,-0.00038,1,0,5.4
37.428,2724768.886,0.00069,0.00015,0.00023,1,0,5.4
37.444,2724768.905,8e-05,0.00015,0.00023,1,0,5.4
37.462,2724768.924,8e-05,0.00015,-0.00038,1,0,5.4
37.482,2724768.943,8e-05,0.00015,-0.00038,1,0,5.4
37.501,2724768.962,8e-05,0.00015,0.00023,1,0,5.4
37.519,2724768.981,8e-05,0.00015,-0.00038,1,0,5.4
37.539,2724769.0,8e-05,0.00015,0.00023,1,0,5.4
37.557,2724769.019,8e-05,0.00015,0.00023,1,0,5.4
37.578,2724769.038,-0.00053,0.00015,0.00023,1,0,5.4
37.598,2724769.057,8e-05,0.00015,-0.00038,1,0,5.4
37.615,2724769.076,-0.00053,0.00015,-0.00038,1,0,5.4
37.637,2724769.095,8e-05,0.00015,-0.00038,1,0,5.4
37.653,2724769.114,-0.00053,-0.00046,0.00023,1,0,5.4
37.673,2724769.134,0.00069,0.00015,-0.00038,1,0,5.4
37.694,2724769.153,-0.00053,8e-05,-0.00038,1,0,5.4
37.71,2724769.172,-0.00115,8e-05,0.00023,1,0,5.4
37.73,2724769.191,-0.00053,8e-05,0.00023,1,0,5.4
37.748,2724769.21,-0.00053,8e-05,-0.00038,1,0,5.4
37.767,2724769.229,0.00069,8e-05,0.00023,1,0,5.4
37.786,2724769.248,-0.00053,8e-05,0.00023,1,0,5.4
37.806,2724769.267,0.00069,8e-05,0.00023,1,0,5.4
37.824,2724769.286,-0.00053,-0.00053,-0.00038,1,0,5.4
37.847,2724769.305,8e-05,8e-05,0.00023,1,0,5.4
37.861,2724769.324,-0.00053,8e-05,0.00023,1,0,5.4
37.88,2724769.343,-0.00053,8e-05,0.00023,1,0,5.4
37.9,2724769.362,-0.00053,8e-05,0.00023,1,0,5.4
37.918,2724769.381,8e-05,-0.00053,0.00023,1,0,5.4
37.937,2724769.4,0.00076,-0.00053,0.00092,1,0,5.4
37.957,2724769.419,-0.00046,8e-05,0.00031,1,0,5.4
37.976,2724769.438,0.00015,8e-05,0.00023,1,0,5.4
37.994,2724769.457,0.00015,-0.00053,-0.00038,1,0,5.4
38.013,2724769.476,0.00076,8e-05,0.00023,1,0,5.4
38.034,2724769.495,-0.00046,8e-05,0.00084,1,0,5.4
38.051,2724769.514,0.00015,-0.00053,0.00023,1,0,5.4
38.071,2724769.533,0.00015,8e-05,0.00023,1,0,5.4
38.09,2724769.552,0.00015,8e-05,0.00023,1,0,5.4
38.108,2724769.571,0.00015,8e-05,0.00023,1,0,5.4
38.128,2724769.59,-0.00046,-0.00053,-0.00038,1,0,5.4
38.147,2724769.609,0.00023,8e-05,0.00023,1,0,5.4
38.165,2724769.628,-0.00038,-0.00053,-0.00038,1,0,5.4
38.185,2724769.647,0.00084,8e-05,-0.00038,1,0,5.4
38.204,2724769.666,-0.00038,-0.00053,0.00023,1,0,5.4
38.223,2724769.685,0.00023,8e-05,0.00023,1,0,5.4
38.242,2724769.704,-0.00099,-0.00053,0.00015,1,0,5.4
38.261,2724769.723,0.00023,8e-05,0.00015,1,0,5.4
38.28,2724769.742,-0.00038,0.00015,-0.00046,1,0,5.4
38.3,2724769.761,-0.00038,0.00015,-0.00046,1,0,5.4
38.318,2724769.78,0.00023,0.00015,0.00015,1,0,5.4
38.337,2724769.799,-0.00038,-0.00046,-0.00046,1,0,5.4
38.357,2724769.818,0.00023,-0.00046,0.00015,1,0,5.4
38.378,2724769.837,-0.00038,-0.00046,-0.00046,1,0,5.4
38.395,2724769.856,0.00084,0.00015,-0.00046,1,0,5.4
38.414,2724769.875,-0.00038,0.00015,0.00076,1,0,5.4
38.435,2724769.894,0.00023,0.00015,-0.00053,1,0,5.4
38.455,2724769.913,0.00023,0.00015,8e-05,1,0,5.4
38.471,2724769.932,0.00023,-0.00046,-0.00053,1,0,5.4
38.49,2724769.951,0.00023,0.00015,-0.00053,1,0,5.4
38.509,2724769.97,-0.00038,-0.00046,8e-05,1,0,5.4
38.528,2724769.989,0.00023,0.00023,8e-05,1,0,5.4
38.546,2724770.008,-0.00038,-0.00038,0.00015,1,0,5.4
38.566,2724770.027,0.00023,-0.00038,0.00015,1,0,5.4
38.585,2724770.046,-0.00099,0.00023,0.00015,1,0,5.4
38.606,2724770.066,0.00084,0.00023,0.00015,1,0,5.4
38.626,2724770.085,-0.00038,-0.00038,0.00015,1,0,5.4
38.642,2724770.104,0.00023,0.00023,0.00015,1,0,5.4
38.661,2724770.123,-0.00038,-0.00038,-0.00046,1,0,5.4
38.681,2724770.142,-0.00038,0.00023,0.00015,1,0,5.4
38.701,2724770.161,0.00023,0.00023,-0.00046,1,0,5.4
38.718,2724770.18,-0.00038,0.00023,0.00015,1,0,5.4
38.737,2724770.199,0.00084,0.00023,0.00015,1,0,5.4
38.758,2724770.218,-0.00038,0.00023,-0.00046,1,0,5.4
38.775,2724770.237,0.00084,0.00023,-0.00046,1,0,5.4
38.794,2724770.256,-0.00038,-0.00038,-0.00046,1,0,5.4
38.812,2724770.275,0.00023,-0.00038,0.00023,1,0,5.4
38.832,2724770.294,-0.00038,-0.00038,0.00023,1,0,5.4
38.851,2724770.313,-0.00038,0.00023,0.00023,1,0,5.4
38.87,2724770.332,-0.00038,0.00023,0.00023,1,0,5.4
38.889,2724770.351,0.00023,0.00023,0.00023,1,0,5.4
38.91,2724770.37,0.00084,0.00023,0.00023,1,0,5.4
38.927,2724770.389,-0.00038,0.00023,0.00084,1,0,5.4
38.946,2724770.408,0.00084,0.00084,0.00023,1,0,5.4
38.965,2724770.427,0.00023,0.00023,0.00023,1,0,5.4
38.984,2724770.446,0.00084,0.00023,0.00084,1,0,5.4
39.003,2724770.465,-0.00038,0.00023,0.00023,1,0,5.4
39.022,2724770.484,0.00023,-0.00038,0.00023,1,0,5.4
39.041,2724770.503,0.00023,0.00023,0.00023,1,0,5.4
39.06,2724770.522,0.00023,0.00023,0.00023,1,0,5.4
39.079,2724770.541,0.00023,-0.00038,0.00084,1,0,5.4
39.1,2724770.56,-0.00038,-0.00038,0.00015,1,0,5.4
39.118,2724770.579,0.00023,0.00023,-0.00046,1,0,5.4
39.137,2724770.598,-0.00038,-0.00038,0.00015,1,0,5.4
39.156,2724770.617,0.00023,0.00023,0.00015,1,0,5.4
39.175,2724770.636,-0.00038,-0.00038,0.00015,1,0,5.4
39.193,2724770.655,0.00023,-0.00038,0.00015,1,0,5.4
39.211,2724770.674,-0.00038,0.00015,0.00015,1,0,5.4
39.231,2724770.693,0.00023,0.00015,0.00015,1,0,5.4
39.253,2724770.712,-0.00038,0.00015,0.00015,1,0,5.4
39.269,2724770.731,-0.00046,0.00015,8e-05,1,0,5.4
39.29,2724770.75,-0.00046,0.00015,-0.00053,1,0,5.4
39.308,2724770.769,-0.00046,0.00015,8e-05,1,0,5.4
39.329,2724770.788,0.00076,0.00076,8e-05,1,0,5.4
39.346,2724770.807,-0.00046,0.00015,0.00069,1,0,5.4
39.365,2724770.826,0.00015,0.00015,8e-05,1,0,5.4
39.385,2724770.845,0.00015,0.00015,-0.00053,1,0,5.4
39.403,2724770.864,0.00015,0.00015,-0.00053,1,0,5.4
39.422,2724770.883,-0.00107,-0.00046,-0.00053,1,0,5.4
39.441,2724770.902,-0.00046,0.00015,-0.00061,1,0,5.4
39.46,2724770.921,-0.00046,0.00015,0.0,1,0,5.4
39.481,2724770.94,0.00015,0.00015,0.00061,1,0,5.4
39.499,2724770.959,0.00076,0.00015,0.0,1,0,5.4
39.517,2724770.978,-0.00046,0.00015,0.0,1,0,5.4
39.537,2724770.998,0.00015,0.00015,0.0,1,0,5.4
39.562,2724771.017,-0.00046,0.00015,-0.00061,1,0,5.4
39.578,2724771.036,-0.00038,0.00015,-0.00061,1,0,5.4
39.594,2724771.055,-0.00038,0.00015,-0.00061,1,0,5.4
39.611,2724771.074,0.00084,0.00015,0.00061,1,0,5.4
39.63,2724771.093,-0.00038,0.00015,0.00061,1,0,5.4
39.65,2724771.112,0.00023,0.00015,0.0,1,0,5.4
39.67,2724771.131,0.00023,0.00015,0.0,1,0,5.4
39.689,2724771.15,0.00023,-0.00046,-0.00061,1,0,5.4
39.708,2724771.169,0.00084,0.00015,8e-05,1,0,5.4
39.731,2724771.188,0.00023,-0.00053,8e-05,1,0,5.4
39.748,2724771.207,0.00023,-0.00053,8e-05,1,0,5.4
39.768,2724771.226,-0.00038,8e-05,8e-05,1,0,5.4
39.784,2724771.245,0.00084,8e-05,8e-05,1,0,5.4
39.802,2724771.264,0.00023,-0.00053,-0.00053,1,0,5.4
39.821,2724771.283,0.00023,8e-05,-0.00053,1,0,5.4
39.842,2724771.302,0.00023,-0.00053,8e-05,1,0,5.4
39.858,2724771.321,0.00023,8e-05,8e-05,1,0,5.4
39.877,2724771.34,0.00023,-0.00053,8e-05,1,0,5.4
39.897,2724771.359,0.00023,8e-05,8e-05,1,0,5.4
39.918,2724771.378,0.00084,-0.00053,8e-05,1,0,5.4
39.941,2724771.397,0.00023,-0.00053,8e-05,1,0,5.4
39.959,2724771.416,0.00084,8e-05,8e-05,1,0,5.4
39.975,2724771.435,-0.00038,8e-05,8e-05,1,0,5.4
39.994,2724771.454,0.00023,8e-05,-0.00053,1,0,5.4
40.012,2724771.473,-0.00038,8e-05,-0.00053,1,0,5.4
40.03,2724771.492,0.00023,-0.00053,8e-05,1,0,5.4
40.054,2724771.511,0.00015,-0.00053,-0.00046,1,0,5.4
40.073,2724771.53,-0.00046,-0.00053,0.00015,1,0,5.4
40.094,2724771.549,0.00015,-0.00046,0.00076,1,0,5.4
40.112,2724771.568,-0.00046,0.00015,0.00015,1,0,5.4
40.126,2724771.587,-0.00046,0.00015,0.00015,1,0,5.4
40.145,2724771.606,-0.00107,0.00015,0.00015,1,0,5.4
40.165,2724771.625,0.00069,-0.00046,0.00015,1,0,5.4
40.184,2724771.644,-0.00053,-0.00046,0.00015,1,0,5.4
40.203,2724771.663,8e-05,0.00015,-0.00046,1,0,5.4
40.22,2724771.682,0.00069,0.00015,0.00015,1,0,5.4
40.239,2724771.701,8e-05,0.00023,0.00015,1,0,5.4
40.258,2724771.72,8e-05,-0.00038,-0.00046,1,0,5.4
40.277,2724771.739,8e-05,-0.00038,-0.00046,1,0,5.4
40.297,2724771.758,8e-05,0.00023,0.00015,1,0,5.4
40.318,2724771.777,8e-05,0.00023,0.00015,1,0,5.4
40.341,2724771.796,0.00069,0.00023,0.00015,1,0,5.4
40.356,2724771.815,-0.00053,-0.00038,0.00015,1,0,5.4
40.374,2724771.834,8e-05,0.00023,-0.00046,1,0,5.4
40.395,2724771.853,8e-05,-0.00038,-0.00046,1,0,5.4
40.414,2724771.872,8e-05,0.00023,-0.00046,1,0,5.4
40.432,2724771.891,8e-05,0.00023,0.00015,1,0,5.4
40.45,2724771.91,8e-05,-0.00031,-0.00046,1,0,5.4
40.473,2724771.93,8e-05,0.00031,-0.00046,1,0,5.4
40.491,2724771.949,-0.00053,0.00031,-0.00046,1,0,5.4
40.511,2724771.968,0.00069,0.00031,0.00015,1,0,5.4
40.526,2724771.987,8e-05,0.00031,0.00015,1,0,5.4
40.547,2724772.006,8e-05,-0.00031,0.00015,1,0,5.4
40.565,2724772.025,-0.00053,-0.00092,0.00015,1,0,5.4
40.584,2724772.044,8e-05,0.00031,0.00015,1,0,5.4
40.607,2724772.063,8e-05,0.00031,0.00015,1,0,5.4
40.62,2724772.082,-0.00053,0.00031,0.00015,1,0,5.4
40.638,2724772.101,0.00069,0.00031,-0.00046,1,0,5.4
40.658,2724772.12,-0.00053,0.00031,0.00015,1,0,5.4
40.683,2724772.139,0.00069,0.00092,0.00015,1,0,5.4
40.698,2724772.158,-0.00053,0.00031,0.00015,1,0,5.4
40.715,2724772.177,0.00069,0.00023,0.00015,1,0,5.4
40.74,2724772.196,-0.00053,-0.00038,-0.00046,1,0,5.4
40.755,2724772.215,8e-05,0.00023,-0.00099,1,0,5.4
40.775,2724772.234,8e-05,-0.00038,-0.00038,1,0,5.4
40.796,2724772.253,8e-05,0.00023,-0.00038,1,0,5.4
40.811,2724772.272,8e-05,0.00023,0.00023,1,0,5.4
40.832,2724772.291,8e-05,-0.00038,0.00084,1,0,5.4
40.85,2724772.31,-0.00053,0.00023,0.00023,1,0,5.4
40.869,2724772.329,-0.00053,0.00023,0.00023,1,0,5.4
40.888,2724772.348,8e-05,0.00023,0.00023,1,0,5.4
40.907,2724772.367,-0.00053,0.00023,0.00084,1,0,5.4
40.926,2724772.386,0.00069,0.00023,0.00145,1,0,5.4
40.944,2724772.405,-0.00053,0.00023,0.00023,1,0,5.4
40.963,2724772.424,8e-05,0.00023,0.00084,1,0,5.4
40.984,2724772.443,0.00069,-0.00038,0.00084,1,0,5.4
41.001,2724772.462,8e-05,-0.00046,0.00023,1,0,5.4
41.02,2724772.481,8e-05,0.00015,0.00023,1,0,5.4
41.038,2724772.5,-0.00115,-0.00046,0.00023,1,0,5.4
41.072,2724772.519,8e-05,-0.00046,0.00023,1,0,5.4
41.078,2724772.538,-0.00053,-0.00046,0.00023,1,0,5.4
41.1,2724772.557,0.00069,0.00015,0.00015,1,0,5.4
41.115,2724772.576,-0.00053,0.00015,0.00015,1,0,5.4
41.135,2724772.595,8e-05,0.00015,-0.00046,1,0,5.4
41.154,2724772.614,8e-05,-0.00046,0.00015,1,0,5.4
41.173,2724772.633,8e-05,0.00015,-0.00046,1,0,5.4
41.193,2724772.652,-0.00053,0.00015,-0.00046,1,0,5.4
41.211,2724772.671,8e-05,-0.00046,8e-05,1,0,5.4
41.228,2724772.69,0.00069,0.00015,0.00069,1,0,5.4
41.248,2724772.709,8e-05,0.00015,8e-05,1,0,5.4
41.272,2724772.728,0.00069,0.00015,8e-05,1,0,5.4
41.289,2724772.747,-0.00053,0.00015,-0.00053,1,0,5.4
41.306,2724772.766,0.00069,0.00076,-0.00053,1,0,5.4
41.326,2724772.785,-0.00115,0.00015,8e-05,1,0,5.4
41.343,2724772.804,0.00015,0.00015,0.0,1,0,5.4
41.363,2724772.823,-0.00046,0.00015,-0.00061,1,0,5.4
41.382,2724772.842,0.00015,-0.00046,0.0,1,0,5.4
41.401,2724772.862,0.00076,0.00015,0.0,1,0,5.4
41.42,2724772.881,0.00015,0.00015,-0.00061,1,0,5.4
41.438,2724772.9,0.00076,0.00015,-0.00061,1,0,5.4
41.459,2724772.919,0.00015,0.00076,-0.00061,1,0,5.4
41.479,2724772.938,0.00076,0.00015,-0.00061,1,0,5.4
41.496,2724772.957,0.00015,-0.00046,-0.0,1,0,5.4
41.513,2724772.976,0.00076,-0.00046,0.00061,1,0,5.4
41.535,2724772.995,8e-05,0.00015,0.0,1,0,5.4
41.558,2724773.014,-0.00053,0.00015,-0.00061,1,0,5.4
41.572,2724773.033,-0.00053,0.00015,0.0,1,0,5.4
41.591,2724773.052,8e-05,0.00015,0.0,1,0,5.4
41.611,2724773.071,-0.00053,0.00015,8e-05,1,0,5.4
41.631,2724773.09,-0.00053,0.00015,-0.00053,1,0,5.4
41.647,2724773.109,8e-05,-0.00046,-0.00053,1,0,5.4
41.667,2724773.128,-0.00053,-0.00046,8e-05,1,0,5.4
41.686,2724773.147,8e-05,0.00015,8e-05,1,0,5.4
41.706,2724773.166,-0.00115,0.00015,-0.00053,1,0,5.4
41.729,2724773.185,8e-05,0.00015,-0.00053,1,0,5.4
41.742,2724773.204,8e-05,0.00015,0.00076,1,0,5.4
41.761,2724773.223,8e-05,-0.00046,0.00015,1,0,5.4
41.78,2724773.242,-0.00053,0.00015,-0.00046,1,0,5.4
41.801,2724773.261,8e-05,8e-05,-0.00046,1,0,5.4
41.819,2724773.28,0.0013,8e-05,-0.00046,1,0,5.4
41.837,2724773.299,8e-05,8e-05,0.00015,1,0,5.4
41.86,2724773.318,8e-05,0.00069,0.00015,1,0,5.4
41.878,2724773.337,-0.00053,8e-05,0.00015,1,0,5.4
41.899,2724773.356,0.0013,8e-05,0.00023,1,0,5.4
41.912,2724773.375,8e-05,8e-05,-0.00038,1,0,5.4
41.934,2724773.394,8e-05,8e-05,-0.00099,1,0,5.4
41.955,2724773.413,-0.00053,8e-05,-0.00038,1,0,5.4
41.975,2724773.432,8e-05,8e-05,0.00084,1,0,5.4
41.993,2724773.451,8e-05,8e-05,0.00023,1,0,5.4
42.012,2724773.47,-0.00053,-0.00053,0.00023,1,0,5.4
42.031,2724773.489,0.00069,8e-05,0.00023,1,0,5.4
42.046,2724773.508,8e-05,8e-05,0.00023,1,0,5.4
42.067,2724773.527,0.00069,8e-05,-0.00038,1,0,5.4
42.086,2724773.546,8e-05,8e-05,0.00023,1,0,5.4
42.11,2724773.565,0.00069,8e-05,-0.00038,1,0,5.4
42.124,2724773.584,-0.00053,8e-05,-0.00038,1,0,5.4
42.141,2724773.603,-0.00053,8e-05,0.00023,1,0,5.4
42.16,2724773.622,8e-05,8e-05,0.00084,1,0,5.4
42.181,2724773.641,-0.00053,8e-05,0.00023,1,0,5.4
42.201,2724773.66,8e-05,-0.00053,0.00023,1,0,5.4
42.223,2724773.679,-0.00053,8e-05,0.00023,1,0,5.4
42.238,2724773.698,8e-05,-0.00053,0.00023,1,0,5.4
42.26,2724773.717,8e-05,-0.00053,0.00023,1,0,5.4
42.277,2724773.736,0.00069,8e-05,0.00023,1,0,5.4
42.298,2724773.755,8e-05,8e-05,0.00084,1,0,5.4
42.312,2724773.774,0.00069,8e-05,0.00023,1,0,5.4
42.333,2724773.794,8e-05,8e-05,-0.00038,1,0,5.4
42.353,2724773.813,8e-05,0.00069,-0.00038,1,0,5.4
42.371,2724773.832,8e-05,8e-05,0.00023,1,0,5.4
42.392,2724773.851,8e-05,8e-05,0.00023,1,0,5.4
42.413,2724773.87,8e-05,8e-05,0.00023,1,0,5.4
42.431,2724773.889,-0.00053,8e-05,0.00023,1,0,5.4
42.447,2724773.908,0.0,8e-05,0.00023,1,0,5.4
42.466,2724773.927,-0.00061,-0.00053,0.00023,1,0,5.4
42.488,2724773.946,0.0,8e-05,0.00015,1,0,5.4
42.505,2724773.965,0.0,8e-05,0.00015,1,0,5.4
42.527,2724773.984,0.0,-0.00053,0.00076,1,0,5.4
42.541,2724774.003,0.0,8e-05,0.00076,1,0,5.4
42.561,2724774.022,-0.00061,0.00069,0.00015,1,0,5.4
42.581,2724774.041,0.0,8e-05,0.00015,1,0,5.4
42.6,2724774.06,-0.00061,8e-05,0.00015,1,0,5.4
42.617,2724774.079,0.0,8e-05,0.00015,1,0,5.4
42.637,2724774.098,-0.00061,8e-05,0.00015,1,0,5.4
42.656,2724774.117,0.00061,0.00069,8e-05,1,0,5.4
42.675,2724774.136,-0.00061,8e-05,8e-05,1,0,5.4
42.699,2724774.155,0.00061,0.00069,-0.00053,1,0,5.4
42.713,2724774.174,-0.00053,8e-05,-0.00053,1,0,5.4
42.733,2724774.193,8e-05,8e-05,8e-05,1,0,5.4
42.756,2724774.212,8e-05,8e-05,8e-05,1,0,5.4
42.774,2724774.231,8e-05,8e-05,8e-05,1,0,5.4
42.792,2724774.25,8e-05,8e-05,0.00061,1,0,5.4
42.81,2724774.269,-0.00053,-0.00053,0.0,1,0,5.4
42.831,2724774.288,8e-05,8e-05,-0.00061,1,0,5.4
42.846,2724774.307,8e-05,-0.00053,0.0,1,0,5.4
42.865,2724774.326,8e-05,8e-05,0.0,1,0,5.4
42.885,2724774.345,-0.00053,-0.00053,0.0,1,0,5.4
42.903,2724774.364,0.00069,0.0,0.0,1,0,5.4
42.922,2724774.383,8e-05,0.0,0.0,1,0,5.4
42.941,2724774.402,8e-05,0.0,0.0,1,0,5.4
42.961,2724774.421,8e-05,0.0,0.0,1,0,5.4
42.982,2724774.44,8e-05,-0.00061,0.0,1,0,5.4
42.997,2724774.459,8e-05,0.0,0.00061,1,0,5.4
43.017,2724774.478,-0.00053,-0.00061,-0.0,1,0,5.4
43.037,2724774.497,8e-05,-0.00061,-0.00061,1,0,5.4
43.078,2724774.516,-0.00053,-0.00061,-0.00061,1,0,5.4
43.079,2724774.535,0.00069,0.0,-0.0,1,0,5.4
43.092,2724774.554,-0.00053,0.0,-0.0,1,0,5.4
43.112,2724774.573,-0.00053,-0.00061,-0.0,1,0,5.4
43.131,2724774.592,0.00015,0.0,-0.00061,1,0,5.4
43.151,2724774.611,0.00015,-0.00061,0.0,1,0,5.4
43.169,2724774.63,0.00015,-0.00061,0.0,1,0,5.4
43.188,2724774.649,-0.00046,8e-05,0.0,1,0,5.4
43.211,2724774.668,0.00015,8e-05,-0.00061,1,0,5.4
43.231,2724774.687,-0.00046,8e-05,0.0,1,0,5.4
43.246,2724774.706,0.00015,8e-05,-0.00061,1,0,5.4
43.264,2724774.726,-0.00046,8e-05,-0.00061,1,0,5.4
43.288,2724774.745,0.00015,0.00069,0.0,1,0,5.4
43.306,2724774.764,-0.00107,8e-05,-0.00061,1,0,5.4
43.322,2724774.783,-0.00046,8e-05,-0.00053,1,0,5.4
43.341,2724774.802,0.00015,0.00015,-0.00053,1,0,5.4
43.359,2724774.821,-0.00046,0.00015,-0.00053,1,0,5.4
43.381,2724774.84,0.00076,0.00015,8e-05,1,0,5.4
43.398,2724774.859,-0.00046,-0.00046,8e-05,1,0,5.4
43.418,2724774.878,0.00015,0.00015,8e-05,1,0,5.4
43.44,2724774.897,0.00015,-0.00046,8e-05,1,0,5.4
43.456,2724774.916,0.00076,0.00015,8e-05,1,0,5.4
43.474,2724774.935,0.00015,0.00015,-0.00053,1,0,5.4
43.496,2724774.954,0.00015,0.00015,8e-05,1,0,5.4
43.514,2724774.973,-0.00046,0.00015,0.00015,1,0,5.4
43.533,2724774.992,-0.00046,-0.00046,0.00015,1,0,5.4
43.555,2724775.011,0.00076,-0.00046,-0.00046,1,0,5.4
43.568,2724775.03,-0.00046,0.00015,-0.00046,1,0,5.4
43.589,2724775.049,0.00015,0.00015,-0.00046,1,0,5.4
43.611,2724775.068,-0.00046,0.00015,0.00015,1,0,5.4
43.629,2724775.087,0.00023,0.00015,0.00015,1,0,5.4
43.648,2724775.106,-0.00038,-0.00046,0.00015,1,0,5.4
43.663,2724775.125,0.00084,0.00015,0.00023,1,0,5.4
43.684,2724775.144,0.00023,0.00015,-0.00038,1,0,5.4
43.703,2724775.163,0.00023,0.00015,-0.00038,1,0,5.4
43.72,2724775.182,0.00023,0.00015,-0.00038,1,0,5.4
43.741,2724775.201,-0.00099,0.00015,0.00023,1,0,5.4
43.758,2724775.22,0.00084,0.00015,0.00023,1,0,5.4
43.782,2724775.239,-0.00038,0.00015,0.00023,1,0,5.4
43.799,2724775.258,0.00023,0.00015,0.00084,1,0,5.4
43.815,2724775.277,-0.00038,0.00015,0.00023,1,0,5.4
43.836,2724775.296,0.00023,0.00015,0.00023,1,0,5.4
43.86,2724775.315,-0.00038,0.00015,-0.00038,1,0,5.4
43.874,2724775.334,0.00084,-0.00046,0.00023,1,0,5.4
43.895,2724775.353,0.00084,-0.00046,0.00023,1,0,5.4
43.912,2724775.372,-0.00038,-0.00046,0.00023,1,0,5.4
43.93,2724775.391,0.00023,-0.00046,0.00084,1,0,5.4
43.95,2724775.41,-0.00046,-0.00046,0.00023,1,0,5.4
43.969,2724775.429,0.00076,0.00015,0.00023,1,0,5.4
43.991,2724775.448,-0.00046,0.00015,0.00023,1,0,5.4
44.007,2724775.467,0.00015,0.00015,0.00023,1,0,5.4
44.026,2724775.486,0.00015,0.00015,0.00023,1,0,5.4
44.045,2724775.505,0.00015,0.00015,-0.00038,1,0,5.4
44.063,2724775.524,-0.00046,0.00015,-0.00038,1,0,5.4
44.082,2724775.543,0.00015,0.00015,-0.00038,1,0,5.4
44.102,2724775.562,0.00015,0.00015,0.00023,1,0,5.4
44.12,2724775.581,0.00015,-0.00046,0.00023,1,0,5.4
44.138,2724775.6,0.00015,-0.00046,0.00015,1,0,5.4
44.158,2724775.619,-0.00046,-0.00046,0.00015,1,0,5.4
44.178,2724775.638,0.00076,0.00015,0.00015,1,0,5.4
44.197,2724775.658,-0.00046,0.00015,-0.00046,1,0,5.4
44.215,2724775.677,0.00015,0.00015,0.00015,1,0,5.4
44.235,2724775.696,0.00015,-0.00046,0.00015,1,0,5.4
44.254,2724775.715,0.00076,-0.00046,0.00076,1,0,5.4
44.275,2724775.734,0.00015,0.00015,0.00015,1,0,5.4
44.294,2724775.753,0.00015,0.00015,0.00015,1,0,5.4
44.315,2724775.772,0.00015,-0.00046,0.00015,1,0,5.4
44.333,2724775.791,-0.00046,0.00015,0.00015,1,0,5.4
44.35,2724775.81,0.00015,0.00015,-0.00046,1,0,5.4
44.369,2724775.829,-0.00107,-0.00046,-0.00053,1,0,5.4
44.39,2724775.848,0.00015,-0.00046,8e-05,1,0,5.4
44.407,2724775.867,-0.00115,0.00015,8e-05,1,0,5.4
44.425,2724775.886,-0.00053,-0.00038,8e-05,1,0,5.4
44.442,2724775.905,-0.00053,0.00023,8e-05,1,0,5.4
44.462,2724775.924,8e-05,0.00023,-0.00053,1,0,5.4
44.482,2724775.943,8e-05,0.00023,8e-05,1,0,5.4
44.502,2724775.962,-0.00053,0.00023,8e-05,1,0,5.4
44.52,2724775.981,8e-05,0.00023,8e-05,1,0,5.4
44.538,2724776.0,8e-05,0.00023,0.00069,1,0,5.4
44.56,2724776.019,0.00076,0.00023,-0.00053,1,0,5.4
44.581,2724776.038,-0.00046,0.00023,-0.00053,1,0,5.4
44.596,2724776.057,0.00076,0.00023,8e-05,1,0,5.4
44.616,2724776.076,-0.00046,0.00023,8e-05,1,0,5.4
44.635,2724776.095,-0.00046,0.00023,8e-05,1,0,5.4
44.654,2724776.114,0.00015,-0.00038,8e-05,1,0,5.4
44.672,2724776.133,0.00015,0.00023,-0.00053,1,0,5.4
44.696,2724776.152,0.00015,-0.00038,8e-05,1,0,5.4
44.713,2724776.171,0.00015,0.00023,8e-05,1,0,5.4
44.732,2724776.19,0.00076,0.00023,-0.00053,1,0,5.4
44.748,2724776.209,-0.00046,0.00023,-0.00053,1,0,5.4
44.768,2724776.228,0.00076,0.00023,-0.00053,1,0,5.4
44.786,2724776.247,-0.00046,-0.00038,8e-05,1,0,5.4
44.806,2724776.266,0.00015,0.00023,8e-05,1,0,5.4
44.824,2724776.285,-0.00046,-0.00038,8e-05,1,0,5.4
44.842,2724776.304,0.00015,0.00023,8e-05,1,0,5.4
44.862,2724776.323,0.00015,0.00023,0.00069,1,0,5.4
44.881,2724776.342,-0.00046,0.00023,8e-05,1,0,5.4
44.901,2724776.361,0.00084,0.00015,0.00015,1,0,5.4
44.919,2724776.38,-0.00038,0.00015,0.00076,1,0,5.4
44.938,2724776.399,0.00023,0.00015,0.00015,1,0,5.4
44.962,2724776.418,-0.00038,-0.00046,-0.00046,1,0,5.4
44.982,2724776.437,0.00084,-0.00046,-0.00046,1,0,5.4
44.998,2724776.456,0.00015,-0.00046,-0.00046,1,0,5.4
45.014,2724776.475,0.00015,0.00015,0.00015,1,0,5.4
45.034,2724776.494,-0.00046,0.00015,0.00015,1,0,5.4
45.075,2724776.513,0.00076,0.00015,-0.00046,1,0,5.4
45.076,2724776.532,0.00015,-0.00046,0.00015,1,0,5.4
45.093,2724776.551,0.00015,-0.00046,0.00015,1,0,5.4
45.109,2724776.57,0.00076,0.00015,0.00015,1,0,5.4
45.129,2724776.59,-0.00107,0.00015,0.00015,1,0,5.4
45.148,2724776.609,0.00015,0.00015,0.00015,1,0,5.4
45.168,2724776.628,-0.00046,-0.00046,0.00015,1,0,5.4
45.188,2724776.647,0.00015,0.00015,0.00015,1,0,5.4
45.209,2724776.666,0.00015,0.00015,0.00015,1,0,5.4
45.224,2724776.685,0.00015,0.00015,-0.00046,1,0,5.4
45.241,2724776.704,-0.00046,0.00076,-0.00046,1,0,5.4
45.261,2724776.723,8e-05,0.00015,-0.00046,1,0,5.4
45.281,2724776.742,0.00069,-0.00046,0.00015,1,0,5.4
45.301,2724776.761,8e-05,0.00015,0.00015,1,0,5.4
45.319,2724776.78,0.00069,0.00015,0.00015,1,0,5.4
45.339,2724776.799,-0.00115,-0.00046,0.00015,1,0,5.4
45.359,2724776.818,0.00069,-0.00046,0.00015,1,0,5.4
45.382,2724776.837,8e-05,0.00015,0.00015,1,0,5.4
45.397,2724776.856,0.00069,0.00015,0.00015,1,0,5.4
45.413,2724776.875,8e-05,0.00015,0.00015,1,0,5.4
45.434,2724776.894,-0.00053,0.00015,0.00015,1,0,5.4
45.455,2724776.913,8e-05,-0.00046,-0.00046,1,0,5.4
