AppTimestamp(s),SensorTimestamp(s),Gyr_X,Gyr_Y,Gyr_Z,Label,Latitude,Longitude
0.061,616682.899,-0.01611,0.00866,-0.00173,7,4.8,0.6
0.062,616682.919,0.04567,0.02463,0.00146,7,4.8,0.6
0.064,616682.939,0.08402,-0.04354,-0.0028,7,4.8,0.6
0.065,616682.959,0.07656,0.04061,0.00253,7,4.8,0.6
0.084,616682.979,0.03822,-0.02756,-0.00173,7,4.8,0.6
0.116,616682.999,-0.01718,0.01079,0.0004,7,4.8,0.6
0.126,616683.02,-0.05979,0.00439,-0.00067,7,4.8,0.6
0.144,616683.04,-0.06831,-0.01265,-0.00067,7,4.8,0.6
0.164,616683.06,-0.047,0.01824,0.0004,7,4.8,0.6
0.184,616683.08,-0.00333,-0.01371,-0.00067,7,4.8,0.6
0.204,616683.1,0.03608,0.00546,0.0004,7,4.8,0.6
0.224,616683.12,0.05632,-0.00093,-0.00067,7,4.8,0.6
0.244,616683.14,0.0478,-0.00413,0.0004,7,4.8,0.6
0.265,616683.16,0.01691,0.00652,0.0004,7,4.8,0.6
0.287,616683.181,-0.02037,-0.00626,-0.00067,7,4.8,0.6
0.304,616683.201,-0.04487,0.00546,0.0004,7,4.8,0.6
0.326,616683.221,-0.04487,-0.002,-0.00067,7,4.8,0.6
0.345,616683.241,-0.02463,-0.00093,0.0004,7,4.8,0.6
0.365,616683.261,0.00626,0.00333,0.0004,7,4.8,0.6
0.387,616683.281,0.03182,-0.00519,-0.00067,7,4.8,0.6
0.407,616683.301,0.04035,0.00333,-0.00067,7,4.8,0.6
0.429,616683.321,0.02756,-0.00306,-0.00067,7,4.8,0.6
0.446,616683.342,0.002,0.00013,0.0004,7,4.8,0.6
0.466,616683.362,-0.02144,0.0012,0.0004,7,4.8,0.6
0.486,616683.382,-0.03316,0.00013,0.0004,7,4.8,0.6
0.507,616683.402,-0.02676,0.00226,-0.00067,7,4.8,0.6
0.527,616683.422,-0.00866,-0.00093,0.0004,7,4.8,0.6
0.547,616683.442,0.01265,0.0012,0.0004,7,4.8,0.6
0.566,616683.462,0.0265,-0.00093,-0.00067,7,4.8,0.6
0.586,616683.482,0.02437,0.00013,0.0004,7,4.8,0.6
0.606,616683.503,0.01158,0.0012,0.0004,7,4.8,0.6
0.627,616683.523,-0.00652,0.00013,0.0004,7,4.8,0.6
0.648,616683.543,-0.02037,0.00013,-0.00067,7,4.8,0.6
0.668,616683.563,-0.0225,0.00013,0.0004,7,4.8,0.6
0.688,616683.583,-0.01292,0.0012,0.0004,7,4.8,0.6
0.708,616683.603,0.00093,-0.00093,0.0004,7,4.8,0.6
0.728,616683.623,0.01478,0.00013,0.0004,7,4.8,0.6
0.749,616683.643,0.01904,0.00013,0.0004,7,4.8,0.6
0.768,616683.664,0.01265,0.00013,0.0004,7,4.8,0.6
0.789,616683.684,0.00093,0.00013,0.0004,7,4.8,0.6
0.811,616683.704,-0.01079,0.0012,0.0004,7,4.8,0.6
0.83,616683.724,-0.01611,0.0012,0.0004,7,4.8,0.6
0.848,616683.744,-0.01292,0.00013,-0.00067,7,4.8,0.6
0.869,616683.764,-0.00333,0.0012,0.0004,7,4.8,0.6
0.889,616683.784,0.00519,0.00759,0.0004,7,4.8,0.6
0.908,616683.804,-0.01398,0.06831,0.00253,7,4.8,0.6
0.928,616683.824,-0.00333,-0.12983,-0.00599,7,4.8,0.6
0.948,616683.845,0.00732,0.09281,0.00466,7,4.8,0.6
0.969,616683.865,0.01798,-0.05632,-0.00173,7,4.8,0.6
0.989,616683.885,0.02011,0.00759,0.0004,7,4.8,0.6
1.01,616683.905,0.01052,0.0257,0.00146,7,4.8,0.6
1.029,616683.925,-0.00013,-0.04035,-0.0028,7,4.8,0.6
1.049,616683.945,-0.01398,0.03848,0.0004,7,4.8,0.6
1.069,616683.965,-0.01611,-0.02543,0.0004,7,4.8,0.6
1.089,616683.985,-0.01292,0.00866,-0.00173,7,4.8,0.6
1.11,616684.006,-0.0012,0.00439,0.0004,7,4.8,0.6
1.13,616684.026,0.01052,-0.01265,-0.00067,7,4.8,0.6
1.152,616684.046,0.01371,0.01398,0.0004,7,4.8,0.6
1.171,616684.066,0.01265,-0.01158,0.0004,7,4.8,0.6
1.191,616684.086,0.00306,0.00546,-0.00067,7,4.8,0.6
1.212,616684.106,-0.00652,-0.00093,0.0004,7,4.8,0.6
1.232,616684.126,-0.01185,-0.00306,-0.00067,7,4.8,0.6
1.25,616684.146,-0.00972,0.00546,0.0004,7,4.8,0.6
1.272,616684.167,-0.00333,-0.00519,-0.00067,7,4.8,0.6
1.291,616684.187,0.00306,0.00546,-0.00067,7,4.8,0.6
1.312,616684.207,0.00839,-0.00413,0.0004,7,4.8,0.6
1.331,616684.227,0.00839,0.00226,0.0004,7,4.8,0.6
1.355,616684.247,0.00519,0.00013,0.0004,7,4.8,0.6
1.371,616684.267,-0.00226,-0.002,0.0004,7,4.8,0.6
1.392,616684.287,-0.00652,0.00226,-0.00067,7,4.8,0.6
1.411,616684.307,-0.00759,-0.00306,-0.00067,7,4.8,0.6
1.431,616684.328,-0.00439,0.00333,0.0004,7,4.8,0.6
1.453,616684.348,-0.00013,-0.002,0.0004,7,4.8,0.6
1.472,616684.368,0.00519,0.00013,-0.00067,7,4.8,0.6
1.492,616684.388,0.00626,0.00013,-0.00067,7,4.8,0.6
1.511,616684.408,0.00413,-0.002,-0.00067,7,4.8,0.6
1.532,616684.428,-0.00013,0.00226,-0.00067,7,4.8,0.6
1.552,616684.448,-0.00439,-0.002,0.0004,7,4.8,0.6
1.573,616684.468,-0.00546,0.0012,0.0004,7,4.8,0.6
1.592,616684.489,-0.00333,0.00013,0.0004,7,4.8,0.6
1.613,616684.509,-0.00013,-0.00093,-0.00067,7,4.8,0.6
1.632,616684.529,0.00306,0.00013,0.0004,7,4.8,0.6
1.653,616684.549,0.00413,0.00013,0.0004,7,4.8,0.6
1.674,616684.569,0.00306,0.00013,0.0004,7,4.8,0.6
1.694,616684.589,-0.00013,0.00013,0.0004,7,4.8,0.6
1.715,616684.609,-0.00226,0.00013,0.0004,7,4.8,0.6
1.734,616684.629,-0.00439,0.00013,0.0004,7,4.8,0.6
1.754,616684.649,-0.00333,0.00013,0.0004,7,4.8,0.6
1.773,616684.67,-0.00013,0.00013,-0.00067,7,4.8,0.6
1.794,616684.69,0.002,0.00013,-0.00067,7,4.8,0.6
1.816,616684.71,0.00306,-0.00093,0.0004,7,4.8,0.6
1.834,616684.73,0.00306,0.00013,-0.00067,7,4.8,0.6
1.854,616684.75,-0.00013,0.00013,-0.00067,7,4.8,0.6
1.874,616684.77,-0.00226,-0.00093,-0.00067,7,4.8,0.6
1.894,616684.79,-0.00333,0.00013,-0.00067,7,4.8,0.6
1.914,616684.81,-0.00226,0.00013,0.0004,7,4.8,0.6
1.935,616684.831,0.00093,0.0012,0.0004,7,4.8,0.6
1.955,616684.851,0.002,0.00013,0.0004,7,4.8,0.6
1.975,616684.871,0.002,0.00013,-0.00067,7,4.8,0.6
1.996,616684.891,0.002,0.0012,-0.00067,7,4.8,0.6
2.016,616684.911,-0.0012,0.00013,0.0004,7,4.8,0.6
2.035,616684.931,-0.00226,0.0012,0.0004,7,4.8,0.6
2.06,616684.951,-0.00226,0.0012,-0.00067,7,4.8,0.6
2.082,616684.971,-0.0012,-0.00093,-0.00067,7,4.8,0.6
2.095,616684.992,-0.00013,0.00226,0.0004,7,4.8,0.6
2.115,616685.012,0.002,-0.00093,0.0004,7,4.8,0.6
2.135,616685.032,0.002,0.0012,0.0004,7,4.8,0.6
2.158,616685.052,0.00093,-0.00093,-0.00067,7,4.8,0.6
2.177,616685.072,-0.00013,0.0012,-0.00067,7,4.8,0.6
2.197,616685.092,-0.0012,0.00013,0.0004,7,4.8,0.6
2.216,616685.112,-0.00226,0.00013,0.0004,7,4.8,0.6
2.237,616685.132,-0.0012,0.00013,0.0004,7,4.8,0.6
2.258,616685.153,-0.00013,0.00013,-0.00067,7,4.8,0.6
2.278,616685.173,0.00093,0.00013,-0.00067,7,4.8,0.6
2.297,616685.193,0.00093,0.00013,0.0004,7,4.8,0.6
2.318,616685.213,0.00093,0.0012,0.0004,7,4.8,0.6
2.341,616685.233,-0.00013,-0.00093,0.0004,7,4.8,0.6
2.363,616685.253,-0.0012,0.0012,-0.00067,7,4.8,0.6
2.378,616685.273,-0.0012,0.00013,0.0004,7,4.8,0.6
2.397,616685.293,-0.00013,0.00013,-0.00067,7,4.8,0.6
2.418,616685.314,-0.00013,0.00013,-0.00067,7,4.8,0.6
2.438,616685.334,-0.00013,0.0012,0.0004,7,4.8,0.6
2.529,616685.354,0.00093,0.00013,0.0004,7,4.8,0.6
2.531,616685.374,0.00093,0.00013,0.0004,7,4.8,0.6
2.536,616685.394,-0.00013,0.00013,-0.00067,7,4.8,0.6
2.538,616685.414,-0.0012,0.00013,0.0004,7,4.8,0.6
2.542,616685.434,-0.0012,-0.00093,0.0004,7,4.8,0.6
2.559,616685.454,-0.0012,0.00013,-0.00067,7,4.8,0.6
2.579,616685.474,-0.00013,0.00013,0.0004,7,4.8,0.6
2.6,616685.495,0.00093,0.00013,0.0004,7,4.8,0.6
2.619,616685.515,0.00093,0.00013,0.0004,7,4.8,0.6
2.64,616685.535,0.00093,0.00013,0.0004,7,4.8,0.6
2.66,616685.555,-0.00013,0.00013,0.0004,7,4.8,0.6
2.681,616685.575,-0.00013,0.00013,0.0004,7,4.8,0.6
2.702,616685.595,-0.0012,0.00013,-0.00067,7,4.8,0.6
2.722,616685.615,-0.00013,0.0012,0.0004,7,4.8,0.6
2.743,616685.635,-0.00013,-0.00093,0.0004,7,4.8,0.6
2.763,616685.656,-0.00013,0.00226,0.0004,7,4.8,0.6
2.781,616685.676,0.00093,0.00013,0.0004,7,4.8,0.6
2.802,616685.696,-0.00013,0.00013,-0.00067,7,4.8,0.6
2.822,616685.716,0.00093,0.00013,-0.00067,7,4.8,0.6
2.844,616685.736,0.00093,0.0012,-0.00067,7,4.8,0.6
2.862,616685.756,-0.00013,-0.00093,-0.00067,7,4.8,0.6
2.882,616685.776,-0.0012,0.00226,0.00146,7,4.8,0.6
2.905,616685.796,-0.0012,-0.002,0.0004,7,4.8,0.6
2.922,616685.817,-0.00226,0.00226,0.0004,7,4.8,0.6
2.943,616685.837,-0.00013,-0.002,-0.00067,7,4.8,0.6
2.962,616685.857,0.002,0.0012,-0.00067,7,4.8,0.6
2.983,616685.877,0.00306,-0.00093,0.0004,7,4.8,0.6
3.001,616685.897,0.00093,0.00013,0.00146,7,4.8,0.6
3.024,616685.917,-0.0012,-0.00093,0.0004,7,4.8,0.6
3.044,616685.937,-0.00226,0.0012,0.0004,7,4.8,0.6
3.064,616685.957,-0.00226,-0.00093,-0.00067,7,4.8,0.6
3.084,616685.978,-0.00013,0.00013,-0.00067,7,4.8,0.6
3.105,616685.998,0.002,0.0012,0.0004,7,4.8,0.6
3.125,616686.018,0.00306,-0.002,-0.00067,7,4.8,0.6
3.145,616686.038,0.002,0.0012,0.0004,7,4.8,0.6
3.165,616686.058,0.00093,0.0012,0.0004,7,4.8,0.6
3.184,616686.078,-0.0012,-0.00093,0.0004,7,4.8,0.6
3.207,616686.098,-0.0012,0.0012,-0.00067,7,4.8,0.6
3.225,616686.118,-0.0012,-0.00093,-0.00067,7,4.8,0.6
3.245,616686.139,-0.00013,0.00013,0.0004,7,4.8,0.6
3.264,616686.159,0.00093,0.00013,0.0004,7,4.8,0.6
3.283,616686.179,0.002,0.00013,0.0004,7,4.8,0.6
3.304,616686.199,0.00093,0.00013,-0.00067,7,4.8,0.6
3.324,616686.219,0.00093,0.00013,-0.00067,7,4.8,0.6
3.345,616686.239,-0.0012,0.00013,0.0004,7,4.8,0.6
3.364,616686.259,-0.0012,-0.00093,0.0004,7,4.8,0.6
3.383,616686.279,-0.00013,0.00013,0.0004,7,4.8,0.6
3.404,616686.3,-0.00013,0.00013,-0.00067,7,4.8,0.6
3.424,616686.32,0.00093,0.00013,0.0004,7,4.8,0.6
3.445,616686.34,0.00093,0.00013,0.0004,7,4.8,0.6
3.467,616686.36,0.00093,-0.00093,-0.00067,7,4.8,0.6
3.485,616686.38,-0.00013,0.0012,-0.00067,7,4.8,0.6
3.505,616686.4,-0.0012,-0.002,-0.00067,7,4.8,0.6
3.525,616686.42,-0.00013,0.00333,0.0004,7,4.8,0.6
3.545,616686.44,-0.0012,-0.00306,-0.00067,7,4.8,0.6
3.565,616686.46,-0.00013,0.0012,0.0004,7,4.8,0.6
3.586,616686.481,0.002,-0.00093,0.0004,7,4.8,0.6
3.605,616686.501,0.00093,0.0012,-0.00173,7,4.8,0.6
3.625,616686.521,0.00093,-0.002,-0.00067,7,4.8,0.6
3.646,616686.541,-0.00013,0.0012,0.0004,7,4.8,0.6
3.666,616686.561,-0.0012,0.00013,0.0004,7,4.8,0.6
3.687,616686.581,-0.0012,-0.00093,0.0004,7,4.8,0.6
3.706,616686.601,-0.00013,0.0012,0.0004,7,4.8,0.6
3.725,616686.621,0.00093,-0.00093,0.0004,7,4.8,0.6
3.745,616686.642,0.002,0.00226,0.0004,7,4.8,0.6
3.769,616686.662,0.00093,-0.00093,-0.00067,7,4.8,0.6
3.788,616686.682,0.00093,0.0012,-0.00067,7,4.8,0.6
3.808,616686.702,-0.00013,0.0012,-0.00067,7,4.8,0.6
3.826,616686.722,-0.0012,-0.002,0.0004,7,4.8,0.6
3.847,616686.742,-0.0012,0.0012,-0.00067,7,4.8,0.6
3.866,616686.762,0.00093,-0.00093,0.0004,7,4.8,0.6
3.887,616686.782,0.00093,0.00013,-0.00067,7,4.8,0.6
3.909,616686.803,0.00093,0.00013,-0.00067,7,4.8,0.6
3.929,616686.823,0.00093,0.00013,0.0004,7,4.8,0.6
3.95,616686.843,0.00093,0.00013,0.0004,7,4.8,0.6
3.97,616686.863,-0.00013,-0.00093,-0.00067,7,4.8,0.6
3.99,616686.883,-0.0012,0.0012,0.0004,7,4.8,0.6
4.009,616686.903,-0.00013,-0.00093,0.0004,7,4.8,0.6
4.028,616686.923,-0.00013,0.00013,-0.00067,7,4.8,0.6
4.048,616686.943,0.00093,-0.00093,0.0004,7,4.8,0.6
4.071,616686.964,0.00093,0.0012,0.0004,7,4.8,0.6
4.089,616686.984,0.00093,-0.00093,-0.00067,7,4.8,0.6
4.108,616687.004,-0.00013,0.00013,0.0004,7,4.8,0.6
4.131,616687.024,-0.0012,0.0012,-0.00067,7,4.8,0.6
4.151,616687.044,-0.0012,-0.00093,0.0004,7,4.8,0.6
4.171,616687.064,-0.00013,0.0012,0.0004,7,4.8,0.6
4.193,616687.084,-0.00013,0.00013,0.0004,7,4.8,0.6
4.212,616687.104,0.00093,0.00013,0.0004,7,4.8,0.6
4.232,616687.125,0.00093,0.00013,-0.00067,7,4.8,0.6
4.252,616687.145,0.00093,0.00013,0.0004,7,4.8,0.6
4.272,616687.165,-0.00013,0.00013,0.0004,7,4.8,0.6
4.292,616687.185,-0.00013,0.00013,0.0004,7,4.8,0.6
4.311,616687.205,-0.00013,0.0012,-0.00067,7,4.8,0.6
4.333,616687.225,-0.00013,0.00013,-0.00067,7,4.8,0.6
4.349,616687.245,-0.00013,0.00013,-0.00067,7,4.8,0.6
4.372,616687.265,-0.00013,0.00013,0.0004,7,4.8,0.6
4.39,616687.285,-0.00013,-0.00093,-0.00067,7,4.8,0.6
4.412,616687.306,-0.00013,0.00013,0.0004,7,4.8,0.6
4.433,616687.326,-0.00013,-0.00093,0.0004,7,4.8,0.6
4.453,616687.346,-0.00013,0.00013,0.0004,7,4.8,0.6
4.473,616687.366,-0.00013,-0.00093,-0.00067,7,4.8,0.6
4.492,616687.386,-0.00013,0.00013,-0.00067,7,4.8,0.6
4.512,616687.406,0.00093,0.00013,-0.00067,7,4.8,0.6
4.531,616687.426,-0.00013,-0.00093,-0.00067,7,4.8,0.6
4.553,616687.446,-0.00013,0.0012,0.0004,7,4.8,0.6
4.575,616687.467,0.00093,-0.00093,0.0004,7,4.8,0.6
4.593,616687.487,-0.00013,0.00013,0.0004,7,4.8,0.6
4.614,616687.507,-0.00013,0.00013,0.0004,7,4.8,0.6
4.634,616687.527,-0.00013,0.00013,-0.00067,7,4.8,0.6
4.654,616687.547,-0.00013,0.00013,0.0004,7,4.8,0.6
4.676,616687.567,-0.00013,0.00013,0.0004,7,4.8,0.6
4.694,616687.587,-0.00013,0.0012,-0.00067,7,4.8,0.6
4.717,616687.607,0.00093,0.0012,0.0004,7,4.8,0.6
4.733,616687.628,0.00093,-0.00093,0.0004,7,4.8,0.6
4.752,616687.648,0.00093,0.0012,0.0004,7,4.8,0.6
4.775,616687.668,-0.00013,-0.00093,0.0004,7,4.8,0.6
4.794,616687.688,-0.00013,0.00013,0.0004,7,4.8,0.6
4.817,616687.708,-0.00013,0.00013,-0.00067,7,4.8,0.6
4.833,616687.728,-0.00013,0.00013,-0.00067,7,4.8,0.6
4.855,616687.748,-0.0012,0.00013,0.0004,7,4.8,0.6
4.875,616687.768,-0.00013,0.00013,-0.00067,7,4.8,0.6
4.896,616687.789,0.00093,0.00013,0.0004,7,4.8,0.6
4.914,616687.809,-0.00013,0.00013,0.0004,7,4.8,0.6
4.934,616687.829,-0.00013,0.00013,0.0004,7,4.8,0.6
4.953,616687.849,-0.0012,0.00013,0.0004,7,4.8,0.6
4.974,616687.869,-0.00013,0.00013,-0.00067,7,4.8,0.6
4.994,616687.889,-0.00013,-0.00093,0.0004,7,4.8,0.6
5.015,616687.909,0.00093,0.00013,0.0004,7,4.8,0.6
5.034,616687.929,-0.00013,0.00013,0.0004,7,4.8,0.6
5.058,616687.95,-0.00013,0.00013,-0.00067,7,4.8,0.6
5.082,616687.97,-0.00013,0.00013,0.0004,7,4.8,0.6
5.095,616687.99,-0.00013,0.00013,-0.00067,7,4.8,0.6
5.114,616688.01,-0.00013,0.00013,-0.00067,7,4.8,0.6
5.135,616688.03,0.00093,0.0012,0.0004,7,4.8,0.6
5.155,616688.05,0.00093,-0.002,-0.00067,7,4.8,0.6
5.176,616688.07,0.00093,0.00226,0.0004,7,4.8,0.6
5.199,616688.09,0.00093,-0.00413,-0.00067,7,4.8,0.6
5.216,616688.111,-0.0012,0.00333,0.0004,7,4.8,0.6
5.239,616688.131,-0.00226,-0.00093,0.0004,7,4.8,0.6
5.259,616688.151,-0.0012,-0.00093,-0.00067,7,4.8,0.6
5.278,616688.171,0.00093,0.00013,-0.00067,7,4.8,0.6
5.297,616688.191,0.00306,-0.00093,-0.00067,7,4.8,0.6
5.32,616688.211,0.002,0.0012,0.0004,7,4.8,0.6
5.336,616688.231,0.00093,-0.002,0.0004,7,4.8,0.6
5.356,616688.251,-0.0012,0.00333,0.0004,7,4.8,0.6
5.377,616688.271,-0.00226,-0.00306,-0.00067,7,4.8,0.6
5.398,616688.292,-0.00226,0.0012,-0.00067,7,4.8,0.6
5.418,616688.312,-0.00013,-0.00093,0.0004,7,4.8,0.6
5.438,616688.332,0.002,-0.00093,-0.00067,7,4.8,0.6
5.477,616688.352,0.00306,0.0012,0.0004,7,4.8,0.6
5.479,616688.372,0.002,-0.00093,0.0004,7,4.8,0.6
5.497,616688.392,-0.00013,0.00013,0.0004,7,4.8,0.6
5.517,616688.412,-0.0012,0.00013,-0.00067,7,4.8,0.6
5.539,616688.432,-0.00226,0.00013,-0.00067,7,4.8,0.6
5.558,616688.453,-0.0012,-0.00093,-0.00067,7,4.8,0.6
5.581,616688.473,-0.00013,0.00013,0.0004,7,4.8,0.6
5.599,616688.493,0.00093,0.0012,0.0004,7,4.8,0.6
5.621,616688.513,0.002,0.00013,0.0004,7,4.8,0.6
5.641,616688.533,0.00093,0.00013,-0.00067,7,4.8,0.6
5.661,616688.553,-0.00013,0.00013,-0.00067,7,4.8,0.6
5.679,616688.573,-0.0012,-0.00093,-0.00067,7,4.8,0.6
5.7,616688.593,-0.0012,0.00013,-0.00067,7,4.8,0.6
5.718,616688.614,-0.0012,0.00013,0.0004,7,4.8,0.6
5.739,616688.634,-0.00013,0.0012,0.0004,7,4.8,0.6
5.762,616688.654,0.00093,0.00013,-0.00067,7,4.8,0.6
5.781,616688.674,0.00093,0.0012,0.0004,7,4.8,0.6
5.801,616688.694,0.00093,0.00013,-0.00067,7,4.8,0.6
5.821,616688.714,-0.00013,-0.00093,0.0004,7,4.8,0.6
5.842,616688.734,-0.0012,0.0012,0.0004,7,4.8,0.6
5.861,616688.754,-0.00013,-0.00093,0.0004,7,4.8,0.6
5.882,616688.775,-0.00013,0.0012,0.0004,7,4.8,0.6
5.907,616688.795,0.00093,0.00013,0.0004,7,4.8,0.6
5.926,616688.815,0.00093,0.0012,-0.00067,7,4.8,0.6
5.941,616688.835,0.00093,0.00013,-0.00067,7,4.8,0.6
5.963,616688.855,0.00093,-0.00093,0.0004,7,4.8,0.6
5.982,616688.875,-0.00013,0.0012,0.0004,7,4.8,0.6
6.007,616688.895,-0.0012,-0.00093,0.0004,7,4.8,0.6
6.025,616688.915,-0.0012,0.00013,0.0004,7,4.8,0.6
6.042,616688.936,-0.00013,0.0012,0.0004,7,4.8,0.6
6.066,616688.956,0.00093,-0.00093,-0.00067,7,4.8,0.6
6.085,616688.976,0.00093,0.00013,0.0004,7,4.8,0.6
6.103,616688.996,0.00093,0.00013,-0.00067,7,4.8,0.6
6.121,616689.016,-0.00013,0.00013,0.0004,7,4.8,0.6
6.146,616689.036,-0.0012,0.00013,0.0004,7,4.8,0.6
6.165,616689.056,-0.0012,0.00013,-0.00067,7,4.8,0.6
6.184,616689.076,-0.00013,0.00013,0.0004,7,4.8,0.6
6.203,616689.096,-0.00013,0.00013,0.0004,7,4.8,0.6
6.224,616689.117,-0.00013,0.00013,-0.00067,7,4.8,0.6
6.246,616689.137,0.00093,0.00013,0.0004,7,4.8,0.6
6.265,616689.157,0.00093,0.00013,0.0004,7,4.8,0.6
6.287,616689.177,0.00093,0.00013,0.0004,7,4.8,0.6
6.307,616689.197,-0.00013,0.00013,-0.00067,7,4.8,0.6
6.327,616689.217,-0.00013,0.00013,-0.00067,7,4.8,0.6
6.353,616689.237,-0.00013,0.00013,0.0004,7,4.8,0.6
6.364,616689.257,-0.00013,0.00013,-0.00067,7,4.8,0.6
6.383,616689.278,-0.00013,0.00013,0.0004,7,4.8,0.6
6.406,616689.298,0.00093,0.00013,0.0004,7,4.8,0.6
6.426,616689.318,-0.00013,0.0012,0.0004,7,4.8,0.6
6.445,616689.338,-0.00013,0.00013,0.0004,7,4.8,0.6
6.464,616689.358,-0.00013,-0.00093,0.0004,7,4.8,0.6
6.485,616689.378,-0.0012,0.0012,0.0004,7,4.8,0.6
6.504,616689.398,-0.00013,0.00013,0.0004,7,4.8,0.6
6.525,616689.418,-0.00013,-0.00093,-0.00067,7,4.8,0.6
6.545,616689.439,-0.00013,0.00013,0.0004,7,4.8,0.6
6.565,616689.459,0.00093,-0.00093,-0.00067,7,4.8,0.6
6.585,616689.479,0.00093,0.00013,0.0004,7,4.8,0.6
6.606,616689.499,0.00093,0.00013,0.0004,7,4.8,0.6
6.626,616689.519,-0.00013,0.00013,0.0004,7,4.8,0.6
6.645,616689.539,-0.00013,0.00013,0.0004,7,4.8,0.6
6.665,616689.559,-0.00013,0.00013,0.0004,7,4.8,0.6
6.684,616689.579,-0.00013,0.00013,0.0004,7,4.8,0.6
6.707,616689.6,-0.00013,0.00013,0.0004,7,4.8,0.6
6.726,616689.62,-0.00013,0.00013,0.0004,7,4.8,0.6
6.745,616689.64,-0.00013,0.00013,0.0004,7,4.8,0.6
6.766,616689.66,-0.00013,0.00013,0.0004,7,4.8,0.6
6.788,616689.68,-0.00013,0.00013,0.0004,7,4.8,0.6
6.806,616689.7,-0.00013,0.00013,0.0004,7,4.8,0.6
6.827,616689.72,-0.00013,0.00013,0.0004,7,4.8,0.6
6.847,616689.74,-0.00013,-0.00093,0.0004,7,4.8,0.6
6.868,616689.761,0.00093,0.00013,0.0004,7,4.8,0.6
6.887,616689.781,-0.00013,-0.00093,-0.00067,7,4.8,0.6
6.909,616689.801,0.00093,-0.00093,0.0004,7,4.8,0.6
6.927,616689.821,-0.00013,0.0012,-0.00067,7,4.8,0.6
6.946,616689.841,-0.00013,0.00013,-0.00067,7,4.8,0.6
6.969,616689.861,-0.00013,0.00013,0.0004,7,4.8,0.6
6.988,616689.881,-0.00013,-0.00093,0.0004,7,4.8,0.6
7.007,616689.901,0.00093,0.00013,0.0004,7,4.8,0.6
7.029,616689.922,-0.00013,-0.00093,0.0004,7,4.8,0.6
7.048,616689.942,-0.00013,0.0012,-0.00067,7,4.8,0.6
7.073,616689.962,-0.00013,-0.00093,-0.00067,7,4.8,0.6
7.088,616689.982,0.00093,-0.00093,-0.00067,7,4.8,0.6
7.107,616690.002,0.00093,0.00013,-0.00067,7,4.8,0.6
7.129,616690.022,-0.00013,0.00013,0.0004,7,4.8,0.6
7.149,616690.042,-0.00013,-0.00093,0.0004,7,4.8,0.6
7.169,616690.062,-0.00013,0.00013,-0.00067,7,4.8,0.6
7.189,616690.082,-0.00013,0.00013,0.0004,7,4.8,0.6
7.21,616690.103,-0.00013,0.00013,0.0004,7,4.8,0.6
7.23,616690.123,-0.00013,0.00013,0.0004,7,4.8,0.6
7.249,616690.143,-0.00013,0.00013,0.0004,7,4.8,0.6
7.27,616690.163,-0.00013,0.00013,-0.00067,7,4.8,0.6
7.288,616690.183,-0.00013,0.00013,0.0004,7,4.8,0.6
7.308,616690.203,-0.00013,0.00013,0.0004,7,4.8,0.6
7.331,616690.223,-0.00013,0.00013,0.0004,7,4.8,0.6
7.349,616690.243,-0.00013,0.00013,-0.00067,7,4.8,0.6
7.371,616690.264,-0.00013,0.00013,-0.00067,7,4.8,0.6
7.389,616690.284,-0.00013,0.00013,-0.00067,7,4.8,0.6
7.411,616690.304,-0.00013,-0.00093,0.0004,7,4.8,0.6
7.429,616690.324,-0.00013,0.00013,-0.00067,7,4.8,0.6
7.457,616690.344,-0.00013,0.00013,0.0004,7,4.8,0.6
7.478,616690.364,-0.00013,0.00013,0.0004,7,4.8,0.6
7.49,616690.384,-0.00013,-0.00093,-0.00067,7,4.8,0.6
7.509,616690.404,-0.00013,0.0012,0.0004,7,4.8,0.6
7.53,616690.425,-0.00013,-0.00093,0.0004,7,4.8,0.6
7.552,616690.445,-0.00013,-0.00093,0.0004,7,4.8,0.6
7.57,616690.465,-0.00013,0.00013,0.0004,7,4.8,0.6
7.594,616690.485,-0.00013,0.00013,0.0004,7,4.8,0.6
7.612,616690.505,-0.00013,-0.00093,-0.00067,7,4.8,0.6
7.635,616690.525,-0.00013,0.00013,-0.00067,7,4.8,0.6
7.652,616690.545,-0.00013,0.00013,0.0004,7,4.8,0.6
7.674,616690.565,-0.00013,0.00013,0.0004,7,4.8,0.6
7.692,616690.586,-0.00013,0.00013,0.0004,7,4.8,0.6
7.713,616690.606,-0.00013,-0.00093,0.0004,7,4.8,0.6
7.734,616690.626,-0.00013,0.00013,0.0004,7,4.8,0.6
7.753,616690.646,-0.00013,-0.00093,0.0004,7,4.8,0.6
7.772,616690.666,-0.00013,0.00013,-0.00067,7,4.8,0.6
7.794,616690.686,-0.00013,-0.00093,0.0004,7,4.8,0.6
7.812,616690.706,-0.00013,0.00013,0.0004,7,4.8,0.6
7.834,616690.726,-0.00013,0.00013,0.0004,7,4.8,0.6
7.852,616690.747,-0.00013,-0.00093,0.0004,7,4.8,0.6
7.872,616690.767,-0.00013,0.00013,-0.00067,7,4.8,0.6
7.895,616690.787,0.00093,0.00013,-0.00067,7,4.8,0.6
7.914,616690.807,-0.00013,0.00013,0.0004,7,4.8,0.6
7.936,616690.827,-0.00013,0.00013,0.0004,7,4.8,0.6
7.954,616690.847,-0.00013,0.00013,0.0004,7,4.8,0.6
7.975,616690.867,-0.0012,0.00013,0.0004,7,4.8,0.6
7.993,616690.887,-0.00013,0.00013,0.0004,7,4.8,0.6
8.015,616690.907,-0.00013,0.00013,-0.00067,7,4.8,0.6
8.034,616690.928,-0.00013,0.00013,0.0004,7,4.8,0.6
8.056,616690.948,-0.00013,-0.00093,0.0004,7,4.8,0.6
8.073,616690.968,-0.00013,0.00013,0.0004,7,4.8,0.6
8.095,616690.988,-0.00013,-0.00093,0.0004,7,4.8,0.6
8.116,616691.008,-0.00013,-0.00093,0.0004,7,4.8,0.6
8.134,616691.028,0.00093,0.00013,0.0004,7,4.8,0.6
8.155,616691.048,-0.00013,0.00013,0.0004,7,4.8,0.6
8.174,616691.068,-0.00013,-0.00093,-0.00067,7,4.8,0.6
8.195,616691.089,-0.00013,0.00013,0.0004,7,4.8,0.6
8.216,616691.109,0.00093,0.00013,0.0004,7,4.8,0.6
8.237,616691.129,-0.00013,0.00013,0.0004,7,4.8,0.6
8.257,616691.149,-0.00013,0.00013,-0.00067,7,4.8,0.6
8.275,616691.169,-0.00013,0.0012,-0.00067,7,4.8,0.6
8.295,616691.189,-0.00013,-0.00093,0.0004,7,4.8,0.6
8.315,616691.209,0.00093,0.00013,0.0004,7,4.8,0.6
8.339,616691.229,-0.00013,0.00013,0.0004,7,4.8,0.6
8.36,616691.25,0.00093,0.00013,0.0004,7,4.8,0.6
8.378,616691.27,0.00093,0.00013,0.0004,7,4.8,0.6
8.395,616691.29,-0.00013,0.00013,-0.00067,7,4.8,0.6
8.417,616691.31,-0.00013,0.00013,-0.00067,7,4.8,0.6
8.436,616691.33,-0.00013,0.00013,0.0004,7,4.8,0.6
8.458,616691.35,-0.00013,0.00013,-0.00067,7,4.8,0.6
8.479,616691.37,-0.00013,0.00013,-0.00067,7,4.8,0.6
8.502,616691.39,-0.00013,-0.00093,0.0004,7,4.8,0.6
8.519,616691.411,-0.00013,0.00013,-0.00067,7,4.8,0.6
8.537,616691.431,-0.0012,0.00013,-0.00067,7,4.8,0.6
8.56,616691.451,-0.00013,0.00013,0.0004,7,4.8,0.6
8.578,616691.471,-0.00013,-0.00093,0.0004,7,4.8,0.6
8.599,616691.491,-0.00013,0.00013,0.0004,7,4.8,0.6
8.618,616691.511,-0.00013,0.00013,0.0004,7,4.8,0.6
8.641,616691.531,-0.00013,0.0012,0.0004,7,4.8,0.6
8.659,616691.551,-0.00013,0.00013,-0.00067,7,4.8,0.6
8.679,616691.572,-0.00013,0.00013,0.0004,7,4.8,0.6
8.7,616691.592,0.00093,-0.00093,-0.00067,7,4.8,0.6
8.719,616691.612,-0.00013,0.00013,0.0004,7,4.8,0.6
8.738,616691.632,0.00093,-0.00093,0.0004,7,4.8,0.6
8.758,616691.652,-0.00013,0.00013,0.0004,7,4.8,0.6
8.778,616691.672,-0.00013,0.0012,0.0004,7,4.8,0.6
8.798,616691.692,-0.00013,-0.00093,0.0004,7,4.8,0.6
8.821,616691.712,-0.00013,0.0012,0.0004,7,4.8,0.6
8.84,616691.733,-0.00013,0.0012,0.0004,7,4.8,0.6
8.859,616691.753,-0.00013,0.00013,-0.00067,7,4.8,0.6
8.883,616691.773,-0.00013,0.00013,0.0004,7,4.8,0.6
8.901,616691.793,-0.00013,-0.00093,0.0004,7,4.8,0.6
8.924,616691.813,-0.00013,0.00013,0.0004,7,4.8,0.6
8.942,616691.833,-0.00013,-0.00093,0.0004,7,4.8,0.6
8.962,616691.853,0.00093,0.00013,-0.00067,7,4.8,0.6
8.982,616691.873,-0.00013,0.00013,0.0004,7,4.8,0.6
9.0,616691.893,-0.00013,0.00013,0.0004,7,4.8,0.6
9.023,616691.914,-0.00013,0.00013,0.0004,7,4.8,0.6
9.04,616691.934,-0.00013,0.00013,0.0004,7,4.8,0.6
9.061,616691.954,-0.00013,0.00013,0.0004,7,4.8,0.6
9.083,616691.974,-0.00013,-0.00093,0.0004,7,4.8,0.6
9.101,616691.994,-0.00013,0.0012,-0.00067,7,4.8,0.6
9.119,616692.014,-0.00013,-0.00093,0.0004,7,4.8,0.6
9.141,616692.034,-0.00013,0.00013,0.0004,7,4.8,0.6
9.162,616692.054,-0.0012,0.0012,0.0004,7,4.8,0.6
9.181,616692.075,-0.00013,0.00013,0.0004,7,4.8,0.6
9.203,616692.095,-0.00013,-0.00093,-0.00067,7,4.8,0.6
9.225,616692.115,-0.00013,0.0012,-0.00067,7,4.8,0.6
9.242,616692.135,0.00093,0.00013,0.0004,7,4.8,0.6
9.261,616692.155,-0.00013,0.0012,0.0004,7,4.8,0.6
9.284,616692.175,-0.00013,-0.00093,0.0004,7,4.8,0.6
9.302,616692.195,0.00093,0.0012,-0.00067,7,4.8,0.6
9.326,616692.215,-0.00013,-0.002,0.0004,7,4.8,0.6
9.342,616692.236,0.00093,0.00013,-0.00067,7,4.8,0.6
9.364,616692.256,-0.00013,0.00013,0.0004,7,4.8,0.6
9.384,616692.276,-0.0012,-0.00093,0.0004,7,4.8,0.6
9.403,616692.296,-0.0012,0.00013,0.0004,7,4.8,0.6
9.422,616692.316,-0.00013,0.00013,0.0004,7,4.8,0.6
9.443,616692.336,-0.00013,0.00013,0.0004,7,4.8,0.6
9.476,616692.356,-0.00013,0.00013,0.0004,7,4.8,0.6
9.483,616692.376,-0.00013,0.00013,0.0004,7,4.8,0.6
9.501,616692.397,-0.00013,0.00013,0.0004,7,4.8,0.6
9.523,616692.417,-0.0012,-0.00093,0.0004,7,4.8,0.6
9.545,616692.437,-0.00013,0.00013,-0.00067,7,4.8,0.6
9.566,616692.457,-0.0012,0.00013,-0.00067,7,4.8,0.6
9.584,616692.477,-0.00013,0.00013,-0.00067,7,4.8,0.6
9.603,616692.497,-0.00013,0.00013,0.0004,7,4.8,0.6
9.628,616692.517,0.00093,0.0012,0.0004,7,4.8,0.6
9.643,616692.537,-0.00013,-0.00093,0.0004,7,4.8,0.6
9.663,616692.558,-0.00013,0.00013,0.0004,7,4.8,0.6
9.681,616692.578,-0.00013,0.00013,0.0004,7,4.8,0.6
9.703,616692.598,-0.00013,0.00013,0.0004,7,4.8,0.6
9.722,616692.618,-0.00013,0.00013,-0.00067,7,4.8,0.6
9.744,616692.638,-0.00013,0.0012,0.0004,7,4.8,0.6
9.763,616692.658,0.00093,0.00013,0.0004,7,4.8,0.6
9.783,616692.678,-0.00013,0.00013,-0.00067,7,4.8,0.6
9.804,616692.698,-0.00013,0.00013,0.0004,7,4.8,0.6
9.823,616692.718,-0.00013,-0.00093,0.0004,7,4.8,0.6
9.843,616692.739,-0.00013,0.00013,0.0004,7,4.8,0.6
9.864,616692.759,-0.00013,0.00013,-0.00067,7,4.8,0.6
9.883,616692.779,-0.0012,0.00013,0.0004,7,4.8,0.6
9.905,616692.799,-0.00013,-0.00093,0.0004,7,4.8,0.6
9.926,616692.819,-0.0012,0.0012,-0.00067,7,4.8,0.6
9.946,616692.839,-0.00013,-0.00093,0.0004,7,4.8,0.6
9.965,616692.859,0.00093,0.00013,0.0004,7,4.8,0.6
9.985,616692.879,-0.00013,0.00013,-0.00067,7,4.8,0.6
10.006,616692.9,-0.00013,0.00013,-0.00067,7,4.8,0.6
10.025,616692.92,-0.00013,0.00013,0.0004,7,4.8,0.6
10.044,616692.94,-0.00013,-0.00093,0.0004,7,4.8,0.6
10.065,616692.96,-0.00013,0.0012,0.0004,7,4.8,0.6
10.085,616692.98,-0.00013,0.00013,0.0004,7,4.8,0.6
10.105,616693.0,-0.00013,0.00013,0.0004,7,4.8,0.6
10.125,616693.02,-0.00013,0.00013,0.0004,7,4.8,0.6
10.146,616693.04,-0.00013,-0.00093,-0.00067,7,4.8,0.6
10.166,616693.061,-0.0012,-0.00093,0.0004,7,4.8,0.6
10.186,616693.081,-0.00013,0.00013,0.0004,7,4.8,0.6
10.207,616693.101,0.00093,0.00013,-0.00067,7,4.8,0.6
10.228,616693.121,-0.00013,-0.00093,-0.00067,7,4.8,0.6
10.247,616693.141,0.00093,0.00013,-0.00067,7,4.8,0.6
10.266,616693.161,-0.00013,0.00013,-0.00067,7,4.8,0.6
10.286,616693.181,-0.00013,-0.00093,-0.00067,7,4.8,0.6
10.307,616693.201,-0.00013,0.00013,-0.00067,7,4.8,0.6
10.327,616693.222,-0.00013,0.00013,0.0004,7,4.8,0.6
10.346,616693.242,-0.00013,-0.00093,0.0004,7,4.8,0.6
10.367,616693.262,-0.00013,0.00013,-0.00067,7,4.8,0.6
10.387,616693.282,-0.00013,0.00013,-0.00067,7,4.8,0.6
10.408,616693.302,-0.00013,-0.00093,-0.00067,7,4.8,0.6
10.427,616693.322,-0.00013,0.00226,0.0004,7,4.8,0.6
10.448,616693.342,-0.0012,-0.00413,0.0004,7,4.8,0.6
10.467,616693.362,-0.00226,0.00546,0.0004,7,4.8,0.6
10.489,616693.383,-0.0012,-0.00519,-0.00067,7,4.8,0.6
10.509,616693.403,-0.0012,0.00226,-0.00067,7,4.8,0.6
10.527,616693.423,0.00093,-0.00093,0.0004,7,4.8,0.6
10.554,616693.443,0.002,-0.00093,0.0004,7,4.8,0.6
10.568,616693.463,0.00093,0.0012,0.0004,7,4.8,0.6
10.591,616693.483,-0.00013,-0.00093,0.0004,7,4.8,0.6
10.609,616693.503,-0.00226,0.0012,0.0004,7,4.8,0.6
10.627,616693.523,-0.0012,-0.00093,-0.00067,7,4.8,0.6
10.649,616693.544,-0.00013,0.00013,-0.00067,7,4.8,0.6
10.668,616693.564,0.002,0.00013,0.0004,7,4.8,0.6
10.69,616693.584,0.002,-0.00093,-0.00067,7,4.8,0.6
10.708,616693.604,-0.00013,0.0012,-0.00067,7,4.8,0.6
10.728,616693.624,-0.0012,-0.00093,-0.00067,7,4.8,0.6
10.751,616693.644,-0.00226,0.0012,0.0004,7,4.8,0.6
10.77,616693.664,-0.0012,0.00013,-0.00067,7,4.8,0.6
10.79,616693.684,-0.00013,0.00013,0.0004,7,4.8,0.6
10.81,616693.704,0.00093,0.00333,-0.00386,7,4.8,0.6
10.829,616693.725,0.002,-0.00626,-0.01664,7,4.8,0.6
10.852,616693.745,0.00413,0.00972,-0.02091,7,4.8,0.6
10.869,616693.765,0.00413,-0.00839,-0.03582,7,4.8,0.6
10.892,616693.785,0.002,0.01824,-0.05712,7,4.8,0.6
10.91,616693.805,-0.00226,0.00226,-0.09867,7,4.8,0.6
10.93,616693.825,-0.00546,0.01185,-0.14234,7,4.8,0.6
10.95,616693.845,-0.00866,0.01079,-0.18389,7,4.8,0.6
10.97,616693.865,-0.01185,0.01398,-0.22436,7,4.8,0.6
10.992,616693.886,-0.02037,0.01079,-0.251,7,4.8,0.6
11.012,616693.906,-0.02996,0.01718,-0.29467,7,4.8,0.6
11.033,616693.926,-0.03635,0.02144,-0.3213,7,4.8,0.6
11.051,616693.946,-0.03529,0.01505,-0.35965,7,4.8,0.6
11.073,616693.966,-0.02676,0.02676,-0.37563,7,4.8,0.6
11.096,616693.986,-0.01824,0.00652,-0.39054,7,4.8,0.6
11.111,616694.006,-0.01931,0.01931,-0.39161,7,4.8,0.6
11.132,616694.026,-0.02889,0.00972,-0.398,7,4.8,0.6
11.151,616694.047,-0.04487,0.01611,-0.398,7,4.8,0.6
11.173,616694.067,-0.05339,0.02463,-0.3948,7,4.8,0.6
11.192,616694.087,-0.047,0.01718,-0.38628,7,4.8,0.6
11.213,616694.107,-0.03102,0.02889,-0.37882,7,4.8,0.6
11.233,616694.127,-0.01079,0.01398,-0.36817,7,4.8,0.6
11.253,616694.147,-0.0012,0.01611,-0.35432,7,4.8,0.6
11.274,616694.167,-0.00759,0.01079,-0.34154,7,4.8,0.6
11.293,616694.187,-0.0257,0.01292,-0.32024,7,4.8,0.6
11.314,616694.208,-0.04381,0.01718,-0.29467,7,4.8,0.6
11.334,616694.228,-0.05126,0.01398,-0.26271,7,4.8,0.6
11.365,616694.248,-0.04061,0.01505,-0.2201,7,4.8,0.6
11.373,616694.268,-0.02037,0.00866,-0.1711,7,4.8,0.6
11.394,616694.288,0.002,0.00226,-0.11891,7,4.8,0.6
11.414,616694.308,0.01371,0.00546,-0.06778,7,4.8,0.6
11.434,616694.328,0.01371,-0.00093,-0.01664,7,4.8,0.6
11.459,616694.348,0.00626,0.0012,0.02597,7,4.8,0.6
11.488,616694.369,-0.0012,0.00333,0.05792,7,4.8,0.6
11.493,616694.389,-0.00013,-0.00306,0.08668,7,4.8,0.6
11.514,616694.409,0.00626,-0.00519,0.11864,7,4.8,0.6
11.533,616694.429,0.01371,-0.01265,0.13675,7,4.8,0.6
11.555,616694.449,0.01798,-0.00519,0.14208,7,4.8,0.6
11.575,616694.469,0.01904,-0.00413,0.13888,7,4.8,0.6
11.596,616694.489,0.01691,-0.00626,0.14314,7,4.8,0.6
11.615,616694.509,0.01371,-0.00306,0.14847,7,4.8,0.6
11.635,616694.529,0.00839,-0.01371,0.14847,7,4.8,0.6
11.657,616694.55,0.00306,-0.00626,0.14101,7,4.8,0.6
11.676,616694.57,0.00306,-0.00732,0.13036,7,4.8,0.6
11.697,616694.59,0.00839,-0.00413,0.11438,7,4.8,0.6
11.716,616694.61,0.01585,-0.00413,0.1016,7,4.8,0.6
11.735,616694.63,0.02011,-0.00626,0.08668,7,4.8,0.6
11.756,616694.65,0.01478,-0.002,0.0771,7,4.8,0.6
11.776,616694.67,0.00306,-0.01265,0.0739,7,4.8,0.6
11.796,616694.69,-0.01079,-0.00413,0.07497,7,4.8,0.6
11.816,616694.711,-0.01505,-0.00732,0.06964,7,4.8,0.6
11.836,616694.731,-0.00866,0.00333,0.06751,7,4.8,0.6
11.856,616694.751,0.00945,-0.00519,0.06431,7,4.8,0.6
11.877,616694.771,0.0233,0.00546,0.06538,7,4.8,0.6
11.898,616694.791,0.02756,-0.01158,0.06325,7,4.8,0.6
11.916,616694.811,0.01478,-0.00093,0.06325,7,4.8,0.6
11.937,616694.831,-0.00333,-0.00626,0.05899,7,4.8,0.6
11.957,616694.851,-0.01718,-0.00093,0.05579,7,4.8,0.6
11.981,616694.872,-0.01611,0.00013,0.05473,7,4.8,0.6
11.998,616694.892,-0.00226,-0.002,0.05153,7,4.8,0.6
12.017,616694.912,0.01478,-0.00093,0.0526,7,4.8,0.6
12.039,616694.932,0.0233,-0.00732,0.05047,7,4.8,0.6
12.056,616694.952,0.01798,0.00013,0.0494,7,4.8,0.6
12.077,616694.972,0.00519,-0.00519,0.0462,7,4.8,0.6
12.099,616694.992,-0.00866,0.00226,0.04407,7,4.8,0.6
12.116,616695.012,-0.01185,-0.002,0.04194,7,4.8,0.6
12.141,616695.033,-0.00652,-0.002,0.04194,7,4.8,0.6
12.158,616695.053,0.00413,-0.00093,0.04088,7,4.8,0.6
12.18,616695.073,0.01158,-0.00519,0.03981,7,4.8,0.6
12.2,616695.093,0.01265,0.00226,0.03768,7,4.8,0.6
12.219,616695.113,0.00839,-0.00626,0.03555,7,4.8,0.6
12.239,616695.133,0.00093,0.00439,0.03449,7,4.8,0.6
12.259,616695.153,-0.00333,-0.00519,0.03236,7,4.8,0.6
12.28,616695.173,-0.00333,0.00013,0.03236,7,4.8,0.6
12.303,616695.194,-0.0012,-0.00306,0.03129,7,4.8,0.6
12.32,616695.214,0.002,-0.00413,0.02916,7,4.8,0.6
12.342,616695.234,0.00413,0.00226,0.0281,7,4.8,0.6
12.363,616695.254,0.00413,-0.00413,0.0249,7,4.8,0.6
12.38,616695.274,0.00413,0.00226,0.02597,7,4.8,0.6
12.399,616695.294,0.00413,-0.00519,0.02383,7,4.8,0.6
12.42,616695.314,0.002,0.00013,0.02383,7,4.8,0.6
12.441,616695.334,-0.00013,-0.00413,0.0217,7,4.8,0.6
12.462,616695.354,-0.00226,-0.00093,0.02064,7,4.8,0.6
12.481,616695.375,-0.00226,0.0012,0.01957,7,4.8,0.6
12.504,616695.395,0.00093,-0.00306,0.01851,7,4.8,0.6
12.521,616695.415,0.00413,0.0012,0.01744,7,4.8,0.6
12.542,616695.435,0.00519,-0.00306,0.01744,7,4.8,0.6
12.563,616695.455,0.00306,-0.00093,0.01638,7,4.8,0.6
12.581,616695.475,0.00093,-0.00093,0.01531,7,4.8,0.6
12.605,616695.495,-0.00333,0.00013,0.01425,7,4.8,0.6
12.625,616695.515,-0.00333,0.00013,0.01318,7,4.8,0.6
12.645,616695.536,-0.0012,-0.00093,0.01212,7,4.8,0.6
12.665,616695.556,0.002,-0.00093,0.01212,7,4.8,0.6
12.684,616695.576,0.00519,-0.002,0.01105,7,4.8,0.6
12.707,616695.596,0.00413,0.0012,0.00999,7,4.8,0.6
12.725,616695.616,0.002,-0.00093,0.00999,7,4.8,0.6
12.746,616695.636,-0.0012,0.0012,0.00892,7,4.8,0.6
12.765,616695.656,-0.00333,-0.00093,0.00786,7,4.8,0.6
12.786,616695.676,-0.00226,0.00013,0.00786,7,4.8,0.6
12.807,616695.697,-0.00013,-0.00093,0.00679,7,4.8,0.6
12.826,616695.717,0.002,-0.002,0.00573,7,4.8,0.6
12.845,616695.737,0.00306,0.0012,0.00573,7,4.8,0.6
12.864,616695.757,0.002,0.00013,0.00466,7,4.8,0.6
12.883,616695.777,0.00093,0.00013,0.0036,7,4.8,0.6
12.905,616695.797,-0.0012,-0.00093,0.0036,7,4.8,0.6
12.923,616695.817,-0.0012,0.00013,0.0036,7,4.8,0.6
12.946,616695.837,-0.0012,-0.00093,0.0036,7,4.8,0.6
12.963,616695.858,0.00093,0.00013,0.00146,7,4.8,0.6
12.984,616695.878,0.002,0.00013,0.00146,7,4.8,0.6
13.003,616695.898,0.002,-0.00093,0.00146,7,4.8,0.6
13.024,616695.918,0.00093,0.00013,0.00146,7,4.8,0.6
13.044,616695.938,-0.00013,-0.00093,0.0004,7,4.8,0.6
13.063,616695.958,-0.0012,0.00013,0.0004,7,4.8,0.6
13.083,616695.978,-0.00226,-0.00093,0.0004,7,4.8,0.6
13.103,616695.998,-0.0012,0.0012,-0.00067,7,4.8,0.6
13.124,616696.019,-0.00013,0.00013,0.0004,7,4.8,0.6
13.144,616696.039,0.00093,-0.00093,0.0004,7,4.8,0.6
13.166,616696.059,0.002,0.00013,0.0004,7,4.8,0.6
13.184,616696.079,0.00093,-0.00093,0.0004,7,4.8,0.6
13.205,616696.099,-0.00013,-0.00093,-0.00067,7,4.8,0.6
13.226,616696.119,-0.0012,0.00013,0.0004,7,4.8,0.6
13.244,616696.139,-0.0012,0.00013,-0.00067,7,4.8,0.6
13.266,616696.159,-0.0012,0.00013,0.0004,7,4.8,0.6
13.286,616696.18,0.00093,0.00013,0.0004,7,4.8,0.6
13.308,616696.2,0.00093,0.00013,-0.00067,7,4.8,0.6
13.325,616696.22,0.00093,-0.00093,0.0004,7,4.8,0.6
13.36,616696.24,-0.00013,0.00013,0.0004,7,4.8,0.6
13.367,616696.26,-0.0012,0.00013,0.0004,7,4.8,0.6
13.385,616696.28,-0.00226,-0.00093,0.0004,7,4.8,0.6
13.406,616696.3,-0.0012,0.00013,0.0004,7,4.8,0.6
13.425,616696.32,-0.00013,0.00013,-0.00067,7,4.8,0.6
13.446,616696.34,0.00093,0.00013,0.0004,7,4.8,0.6
13.474,616696.361,0.00093,0.00013,0.0004,7,4.8,0.6
13.485,616696.381,-0.00013,0.00013,-0.00067,7,4.8,0.6
13.506,616696.401,0.00093,0.00013,0.0004,7,4.8,0.6
13.527,616696.421,-0.0012,0.00013,-0.00067,7,4.8,0.6
13.547,616696.441,-0.0012,0.0012,-0.00067,7,4.8,0.6
13.567,616696.461,-0.00013,0.00013,0.0004,7,4.8,0.6
13.589,616696.481,-0.00013,0.00013,0.0004,7,4.8,0.6
13.609,616696.501,0.00093,0.00013,-0.00067,7,4.8,0.6
13.631,616696.522,0.00093,0.00013,0.0004,7,4.8,0.6
13.648,616696.542,-0.00013,0.00013,0.0004,7,4.8,0.6
13.67,616696.562,0.00093,0.00013,0.0004,7,4.8,0.6
13.688,616696.582,-0.00013,0.00013,0.0004,7,4.8,0.6
13.708,616696.602,-0.0012,0.00013,0.0004,7,4.8,0.6
13.73,616696.622,-0.0012,0.00013,-0.00067,7,4.8,0.6
13.75,616696.642,-0.0012,0.0012,-0.00067,7,4.8,0.6
13.77,616696.662,0.00093,-0.00093,0.0004,7,4.8,0.6
13.789,616696.683,0.00093,0.00013,0.0004,7,4.8,0.6
13.81,616696.703,0.00093,0.0012,-0.00067,7,4.8,0.6
13.829,616696.723,-0.00013,0.00013,0.0004,7,4.8,0.6
13.853,616696.743,-0.0012,0.00013,-0.00067,7,4.8,0.6
13.868,616696.763,-0.0012,0.00013,-0.00067,7,4.8,0.6
13.889,616696.783,-0.00013,-0.00093,0.0004,7,4.8,0.6
13.909,616696.803,0.00093,0.00013,0.0004,7,4.8,0.6
13.929,616696.823,-0.00013,0.00013,-0.00067,7,4.8,0.6
13.949,616696.844,0.00093,0.00013,0.0004,7,4.8,0.6
13.971,616696.864,-0.00013,0.00013,0.0004,7,4.8,0.6
13.99,616696.884,-0.0012,0.00013,0.0004,7,4.8,0.6
14.009,616696.904,-0.0012,0.00013,0.0004,7,4.8,0.6
14.029,616696.924,-0.0012,-0.00093,-0.00067,7,4.8,0.6
14.053,616696.944,-0.00013,0.0012,0.0004,7,4.8,0.6
14.069,616696.964,0.00093,0.00013,0.0004,7,4.8,0.6
14.091,616696.984,-0.00013,0.00013,0.0004,7,4.8,0.6
14.112,616697.005,-0.00013,0.00013,-0.00067,7,4.8,0.6
14.13,616697.025,-0.00013,0.00013,-0.00067,7,4.8,0.6
14.152,616697.045,-0.00013,0.00013,-0.00067,7,4.8,0.6
14.171,616697.065,-0.00013,0.00013,0.0004,7,4.8,0.6
14.192,616697.085,-0.00013,0.00013,-0.00067,7,4.8,0.6
14.211,616697.105,-0.00013,0.0012,-0.00067,7,4.8,0.6
14.233,616697.125,-0.00013,0.00013,0.0004,7,4.8,0.6
14.251,616697.145,-0.00013,0.00013,0.0004,7,4.8,0.6
14.273,616697.165,-0.0012,0.00013,0.0004,7,4.8,0.6
14.296,616697.186,-0.0012,-0.00093,0.0004,7,4.8,0.6
14.313,616697.206,0.00093,-0.00093,-0.00067,7,4.8,0.6
14.333,616697.226,0.002,0.00013,-0.00067,7,4.8,0.6
14.363,616697.246,0.002,0.00013,0.0004,7,4.8,0.6
14.371,616697.266,0.002,0.00013,-0.00067,7,4.8,0.6
14.392,616697.286,-0.00013,0.00013,0.0004,7,4.8,0.6
14.414,616697.306,-0.0012,0.00013,0.0004,7,4.8,0.6
14.433,616697.326,-0.00333,-0.00093,-0.00067,7,4.8,0.6
14.453,616697.347,-0.00226,0.00013,0.0004,7,4.8,0.6
14.473,616697.367,-0.00013,0.00013,0.0004,7,4.8,0.6
14.495,616697.387,0.002,-0.00093,0.0004,7,4.8,0.6
14.516,616697.407,0.002,0.0012,0.0004,7,4.8,0.6
14.536,616697.427,0.00093,0.00013,-0.00067,7,4.8,0.6
14.555,616697.447,-0.0012,-0.00093,0.0004,7,4.8,0.6
14.577,616697.467,-0.00226,0.0012,0.0004,7,4.8,0.6
14.593,616697.487,-0.00226,-0.002,-0.00067,7,4.8,0.6
14.616,616697.508,-0.00226,0.0012,0.0004,7,4.8,0.6
14.634,616697.528,-0.00013,-0.002,0.0004,7,4.8,0.6
14.656,616697.548,0.00093,0.0012,0.0004,7,4.8,0.6
14.677,616697.568,0.002,0.00013,0.0004,7,4.8,0.6
14.699,616697.588,-0.00013,-0.00093,0.0004,7,4.8,0.6
14.72,616697.608,-0.00013,0.0012,-0.00067,7,4.8,0.6
14.737,616697.628,-0.00013,0.00013,0.0004,7,4.8,0.6
14.757,616697.648,-0.0012,0.00013,0.0004,7,4.8,0.6
14.775,616697.669,-0.0012,0.00013,-0.00067,7,4.8,0.6
14.796,616697.689,-0.00013,0.00013,-0.00067,7,4.8,0.6
14.816,616697.709,-0.00013,0.00013,0.0004,7,4.8,0.6
14.835,616697.729,0.00093,0.00013,0.0004,7,4.8,0.6
14.857,616697.749,0.00093,0.00013,0.0004,7,4.8,0.6
14.879,616697.769,-0.00013,-0.00093,0.0004,7,4.8,0.6
14.898,616697.789,-0.0012,0.00013,-0.00067,7,4.8,0.6
14.916,616697.809,-0.0012,0.00013,0.0004,7,4.8,0.6
14.939,616697.83,-0.0012,-0.00093,0.0004,7,4.8,0.6
14.956,616697.85,-0.00013,0.00013,0.0004,7,4.8,0.6
14.977,616697.87,0.002,0.00013,-0.00067,7,4.8,0.6
14.998,616697.89,0.00093,0.00013,-0.00067,7,4.8,0.6
15.016,616697.91,-0.00013,0.00013,0.0004,7,4.8,0.6
15.04,616697.93,-0.00013,0.0012,-0.00067,7,4.8,0.6
15.057,616697.95,-0.0012,0.00013,0.0004,7,4.8,0.6
15.078,616697.97,-0.0012,0.00013,0.0004,7,4.8,0.6
15.098,616697.99,-0.0012,0.0012,0.0004,7,4.8,0.6
15.115,616698.011,0.00093,0.00013,-0.00067,7,4.8,0.6
15.138,616698.031,0.00093,0.00013,0.0004,7,4.8,0.6
15.159,616698.051,0.00093,0.00013,0.0004,7,4.8,0.6
15.177,616698.071,-0.00013,0.0012,0.0004,7,4.8,0.6
15.197,616698.091,-0.00013,0.00013,-0.00067,7,4.8,0.6
15.217,616698.111,-0.00226,0.00013,0.0004,7,4.8,0.6
15.24,616698.131,-0.0012,0.0012,-0.00067,7,4.8,0.6
15.259,616698.151,-0.0012,-0.00093,0.0004,7,4.8,0.6
15.279,616698.172,-0.00013,0.00013,-0.00067,7,4.8,0.6
15.301,616698.192,0.00093,0.0012,-0.00067,7,4.8,0.6
15.318,616698.212,0.00093,0.00013,0.0004,7,4.8,0.6
15.341,616698.232,-0.00013,0.00013,-0.00067,7,4.8,0.6
15.366,616698.252,-0.00013,0.00013,0.0004,7,4.8,0.6
15.38,616698.272,-0.0012,0.00013,0.0004,7,4.8,0.6
15.398,616698.292,-0.0012,-0.002,-0.00067,7,4.8,0.6
15.42,616698.312,-0.00013,0.00013,0.0004,7,4.8,0.6
15.439,616698.333,0.00093,-0.00093,-0.00067,7,4.8,0.6
15.466,616698.353,0.00093,0.00013,-0.00067,7,4.8,0.6
15.505,616698.373,-0.00013,0.0012,0.0004,7,4.8,0.6
15.507,616698.393,-0.00013,-0.00093,-0.00067,7,4.8,0.6
15.518,616698.413,-0.00013,0.00013,0.0004,7,4.8,0.6
15.54,616698.433,-0.00013,0.00013,-0.00067,7,4.8,0.6
15.56,616698.453,-0.00013,0.00013,0.0004,7,4.8,0.6
15.58,616698.473,0.00093,-0.00093,0.0004,7,4.8,0.6
15.6,616698.494,0.00093,0.00013,0.0004,7,4.8,0.6
15.62,616698.514,-0.00013,0.00013,0.0004,7,4.8,0.6
15.641,616698.534,-0.00013,0.00013,-0.00067,7,4.8,0.6
15.663,616698.554,-0.00013,0.00013,0.0004,7,4.8,0.6
15.68,616698.574,-0.00013,0.00013,0.0004,7,4.8,0.6
15.703,616698.594,-0.00013,0.00013,-0.00067,7,4.8,0.6
15.723,616698.614,-0.00013,-0.00093,-0.00067,7,4.8,0.6
15.744,616698.634,-0.00013,0.00013,-0.00067,7,4.8,0.6
15.76,616698.655,-0.00013,0.0012,0.0004,7,4.8,0.6
15.784,616698.675,0.00093,-0.00093,-0.00067,7,4.8,0.6
15.804,616698.695,-0.00013,0.00013,0.0004,7,4.8,0.6
15.823,616698.715,-0.00013,0.00013,0.0004,7,4.8,0.6
15.842,616698.735,-0.00013,-0.00093,-0.00067,7,4.8,0.6
15.863,616698.755,-0.00013,0.00013,0.0004,7,4.8,0.6
15.884,616698.775,-0.00013,0.00013,0.0004,7,4.8,0.6
15.905,616698.795,-0.00013,-0.00093,-0.00067,7,4.8,0.6
15.922,616698.815,0.00093,0.0012,0.0004,7,4.8,0.6
15.944,616698.836,0.00093,-0.00093,-0.00067,7,4.8,0.6
15.962,616698.856,-0.00013,0.00013,-0.00067,7,4.8,0.6
15.983,616698.876,-0.00013,-0.00093,0.0004,7,4.8,0.6
16.005,616698.896,-0.00013,0.00013,0.0004,7,4.8,0.6
16.027,616698.916,-0.00013,0.00013,0.0004,7,4.8,0.6
16.044,616698.936,-0.00013,0.00013,0.0004,7,4.8,0.6
16.062,616698.956,-0.00013,0.00013,0.0004,7,4.8,0.6
16.085,616698.976,0.00093,0.00013,0.0004,7,4.8,0.6
16.107,616698.997,-0.00013,0.00013,0.0004,7,4.8,0.6
16.122,616699.017,-0.00013,0.00013,0.0004,7,4.8,0.6
16.143,616699.037,-0.00013,0.00013,0.0004,7,4.8,0.6
16.162,616699.057,-0.0012,0.00013,0.0004,7,4.8,0.6
16.183,616699.077,-0.00013,0.00013,0.0004,7,4.8,0.6
16.203,616699.097,-0.00013,0.00013,-0.00067,7,4.8,0.6
16.224,616699.117,-0.00013,0.00013,0.0004,7,4.8,0.6
16.243,616699.137,-0.00013,-0.00093,-0.00067,7,4.8,0.6
16.264,616699.158,-0.00013,0.00013,-0.00067,7,4.8,0.6
16.283,616699.178,-0.00013,0.00013,0.0004,7,4.8,0.6
16.305,616699.198,-0.00013,0.00013,0.0004,7,4.8,0.6
16.324,616699.218,-0.00013,-0.00093,0.0004,7,4.8,0.6
16.347,616699.238,-0.00013,0.00013,0.0004,7,4.8,0.6
16.364,616699.258,-0.00013,0.00013,0.0004,7,4.8,0.6
16.384,616699.278,-0.00013,-0.00093,-0.00067,7,4.8,0.6
16.405,616699.298,-0.00013,0.0012,-0.00067,7,4.8,0.6
16.424,616699.319,-0.00013,-0.00093,0.0004,7,4.8,0.6
16.446,616699.339,-0.00013,0.00013,-0.00067,7,4.8,0.6
16.464,616699.359,-0.00013,0.0012,0.0004,7,4.8,0.6
16.487,616699.379,-0.00013,-0.00093,-0.00067,7,4.8,0.6
16.504,616699.399,-0.00013,-0.00093,-0.00067,7,4.8,0.6
16.525,616699.419,-0.00013,0.00013,0.0004,7,4.8,0.6
16.546,616699.439,-0.00013,0.00013,-0.00067,7,4.8,0.6
16.565,616699.459,-0.00013,0.00013,0.0004,7,4.8,0.6
16.587,616699.48,-0.00013,0.00013,0.0004,7,4.8,0.6
16.605,616699.5,-0.00013,0.00013,0.0004,7,4.8,0.6
16.627,616699.52,-0.00013,-0.00093,0.0004,7,4.8,0.6
16.645,616699.54,-0.00013,0.00013,0.0004,7,4.8,0.6
16.668,616699.56,-0.00013,0.00013,0.0004,7,4.8,0.6
16.685,616699.58,-0.00013,0.00013,-0.00067,7,4.8,0.6
16.707,616699.6,-0.00013,0.00013,0.0004,7,4.8,0.6
16.726,616699.62,-0.00013,0.0012,0.0004,7,4.8,0.6
16.746,616699.641,-0.00013,0.00013,0.0004,7,4.8,0.6
16.767,616699.661,-0.00013,0.00013,0.0004,7,4.8,0.6
16.786,616699.681,-0.00013,-0.00093,-0.00067,7,4.8,0.6
16.807,616699.701,-0.00013,-0.00093,0.0004,7,4.8,0.6
16.826,616699.721,0.00093,0.00013,0.0004,7,4.8,0.6
16.847,616699.741,-0.00013,0.00013,-0.00067,7,4.8,0.6
16.87,616699.761,-0.00013,0.00013,0.0004,7,4.8,0.6
16.887,616699.781,-0.00013,0.00013,0.0004,7,4.8,0.6
16.908,616699.801,-0.0012,-0.00093,-0.00067,7,4.8,0.6
16.929,616699.822,-0.00013,0.0012,-0.00067,7,4.8,0.6
16.948,616699.842,-0.00013,-0.00093,-0.00067,7,4.8,0.6
16.97,616699.862,-0.00013,0.0012,0.0004,7,4.8,0.6
16.989,616699.882,-0.00013,-0.00093,0.0004,7,4.8,0.6
17.007,616699.902,0.00093,0.00013,-0.00067,7,4.8,0.6
17.028,616699.922,-0.0012,0.00013,0.0004,7,4.8,0.6
17.05,616699.942,-0.0012,-0.00093,-0.00067,7,4.8,0.6
17.069,616699.962,-0.00013,0.0012,0.0004,7,4.8,0.6
17.09,616699.983,-0.00013,0.00013,0.0004,7,4.8,0.6
17.11,616700.003,-0.00013,0.00013,-0.00067,7,4.8,0.6
17.128,616700.023,-0.00013,0.00013,0.0004,7,4.8,0.6
17.149,616700.043,-0.00013,0.00013,0.0004,7,4.8,0.6
17.169,616700.063,-0.00013,0.00013,0.0004,7,4.8,0.6
17.191,616700.083,0.00093,0.00013,-0.00067,7,4.8,0.6
17.209,616700.103,-0.00013,0.00013,-0.00067,7,4.8,0.6
17.232,616700.123,-0.0012,0.00013,0.0004,7,4.8,0.6
17.252,616700.144,-0.00013,0.00013,-0.00067,7,4.8,0.6
17.27,616700.164,-0.00013,0.00013,-0.00067,7,4.8,0.6
17.29,616700.184,-0.00013,0.00013,-0.00067,7,4.8,0.6
17.313,616700.204,-0.00013,0.00013,0.0004,7,4.8,0.6
17.331,616700.224,-0.00013,0.00013,0.0004,7,4.8,0.6
17.352,616700.244,-0.00013,0.00013,-0.00067,7,4.8,0.6
17.371,616700.264,-0.00013,0.00013,-0.00067,7,4.8,0.6
17.39,616700.284,-0.00013,0.00013,-0.00067,7,4.8,0.6
17.41,616700.305,-0.00013,0.00013,0.0004,7,4.8,0.6
17.431,616700.325,-0.00013,-0.00093,-0.00067,7,4.8,0.6
17.457,616700.345,-0.00013,0.00013,0.0004,7,4.8,0.6
17.474,616700.365,-0.00013,0.00013,0.0004,7,4.8,0.6
17.49,616700.385,-0.00013,0.00013,-0.00067,7,4.8,0.6
17.51,616700.405,-0.00013,0.00013,0.0004,7,4.8,0.6
17.532,616700.425,-0.00013,0.00013,-0.00067,7,4.8,0.6
17.552,616700.445,-0.00013,0.00013,-0.00067,7,4.8,0.6
17.573,616700.466,-0.00013,0.00013,0.0004,7,4.8,0.6
17.593,616700.486,-0.00013,0.0012,-0.00067,7,4.8,0.6
17.613,616700.506,-0.00013,-0.00093,-0.00067,7,4.8,0.6
17.631,616700.526,-0.00013,0.0012,0.0004,7,4.8,0.6
17.654,616700.546,-0.00013,0.00013,-0.00067,7,4.8,0.6
17.673,616700.566,-0.00013,-0.00093,0.0004,7,4.8,0.6
17.694,616700.586,-0.00013,0.0012,0.0004,7,4.8,0.6
17.714,616700.606,-0.00013,0.00013,-0.00067,7,4.8,0.6
17.732,616700.626,0.00093,-0.002,-0.00067,7,4.8,0.6
17.754,616700.647,0.00093,0.00333,0.00146,7,4.8,0.6
17.773,616700.667,0.00093,-0.00093,0.0004,7,4.8,0.6
17.794,616700.687,0.00093,0.00013,0.0004,7,4.8,0.6
17.814,616700.707,-0.00013,0.00013,-0.00067,7,4.8,0.6
17.833,616700.727,-0.00013,-0.00093,-0.00067,7,4.8,0.6
17.855,616700.747,-0.00013,0.0012,0.0004,7,4.8,0.6
17.876,616700.767,-0.00013,0.00013,0.0004,7,4.8,0.6
17.894,616700.787,-0.00013,0.00013,0.0004,7,4.8,0.6
17.915,616700.808,0.00093,0.00013,0.0004,7,4.8,0.6
17.935,616700.828,0.00093,0.00013,-0.00067,7,4.8,0.6
17.956,616700.848,-0.00013,-0.00093,-0.00067,7,4.8,0.6
17.974,616700.868,-0.0012,0.0012,0.0004,7,4.8,0.6
17.996,616700.888,-0.00013,-0.002,-0.00067,7,4.8,0.6
18.017,616700.908,-0.00013,0.00013,0.0004,7,4.8,0.6
18.034,616700.928,-0.00013,-0.00093,0.0004,7,4.8,0.6
18.056,616700.948,-0.00013,-0.00093,0.0004,7,4.8,0.6
18.078,616700.969,-0.0012,-0.002,0.0004,7,4.8,0.6
18.096,616700.989,-0.0012,0.0012,-0.00067,7,4.8,0.6
18.114,616701.009,-0.0012,-0.00413,-0.00173,7,4.8,0.6
18.136,616701.029,-0.0012,0.00439,0.0004,7,4.8,0.6
18.155,616701.049,-0.00013,-0.00093,0.0004,7,4.8,0.6
18.175,616701.069,0.00306,0.00013,0.00146,7,4.8,0.6
18.197,616701.089,0.002,0.0012,0.00146,7,4.8,0.6
18.215,616701.109,-0.00013,-0.002,-0.00067,7,4.8,0.6
18.238,616701.13,-0.00226,0.00013,-0.00173,7,4.8,0.6
18.259,616701.15,-0.00333,0.00013,-0.00067,7,4.8,0.6
18.277,616701.17,-0.0012,0.00013,0.0004,7,4.8,0.6
18.299,616701.19,0.00093,0.00013,0.00146,7,4.8,0.6
18.318,616701.21,0.00306,0.00013,0.00146,7,4.8,0.6
18.341,616701.23,0.002,-0.002,-0.00067,7,4.8,0.6
18.356,616701.25,0.00093,0.00013,-0.00067,7,4.8,0.6
18.377,616701.27,-0.0012,0.00013,-0.00067,7,4.8,0.6
18.397,616701.291,-0.00226,0.00013,0.0004,7,4.8,0.6
18.417,616701.311,-0.0012,0.0012,0.0004,7,4.8,0.6
18.439,616701.331,0.00093,0.00013,-0.00067,7,4.8,0.6
18.459,616701.351,0.00093,0.00013,0.0004,7,4.8,0.6
18.478,616701.371,0.00093,0.00013,-0.00067,7,4.8,0.6
18.499,616701.391,-0.00013,0.00013,-0.00067,7,4.8,0.6
18.521,616701.411,-0.0012,0.00013,-0.00067,7,4.8,0.6
18.536,616701.431,-0.0012,0.00013,0.0004,7,4.8,0.6
18.56,616701.451,-0.00013,0.00013,0.0004,7,4.8,0.6
18.58,616701.472,-0.00013,0.0012,0.0004,7,4.8,0.6
18.599,616701.492,0.00093,-0.00093,0.0004,7,4.8,0.6
18.62,616701.512,0.00093,0.00013,-0.00067,7,4.8,0.6
18.641,616701.532,-0.00013,0.00013,0.0004,7,4.8,0.6
18.659,616701.552,-0.00013,0.00013,0.0004,7,4.8,0.6
18.68,616701.572,-0.00013,-0.00093,0.0004,7,4.8,0.6
18.699,616701.592,-0.00013,0.0012,0.0004,7,4.8,0.6
18.72,616701.612,-0.00013,-0.00093,0.0004,7,4.8,0.6
18.741,616701.633,-0.00013,0.00226,0.0004,7,4.8,0.6
18.761,616701.653,-0.00013,-0.00093,-0.00067,7,4.8,0.6
18.781,616701.673,-0.00013,0.0012,-0.00067,7,4.8,0.6
18.801,616701.693,-0.00013,0.00013,0.0004,7,4.8,0.6
18.82,616701.713,0.00093,0.00013,-0.00067,7,4.8,0.6
18.84,616701.733,-0.00013,0.00013,0.0004,7,4.8,0.6
18.863,616701.753,-0.0012,-0.00093,0.0004,7,4.8,0.6
18.88,616701.773,-0.0012,0.0012,0.0004,7,4.8,0.6
18.908,616701.794,-0.00013,0.00013,-0.00067,7,4.8,0.6
18.922,616701.814,-0.00013,0.00013,-0.00067,7,4.8,0.6
18.94,616701.834,-0.00013,0.00013,0.0004,7,4.8,0.6
18.96,616701.854,0.00093,0.00013,0.0004,7,4.8,0.6
18.983,616701.874,0.00093,-0.00093,-0.00067,7,4.8,0.6
19.002,616701.894,-0.0012,-0.00093,-0.00067,7,4.8,0.6
19.022,616701.914,-0.0012,0.0012,0.0004,7,4.8,0.6
19.04,616701.934,-0.0012,-0.00093,0.0004,7,4.8,0.6
19.06,616701.955,-0.00013,0.0012,0.0004,7,4.8,0.6
19.08,616701.975,-0.00013,0.00013,0.0004,7,4.8,0.6
19.102,616701.995,-0.00013,0.00013,0.0004,7,4.8,0.6
19.124,616702.015,-0.00013,0.00013,0.0004,7,4.8,0.6
19.141,616702.035,-0.00013,0.00013,0.0004,7,4.8,0.6
19.164,616702.055,-0.00013,0.00013,0.0004,7,4.8,0.6
19.184,616702.075,-0.00013,0.00013,-0.00067,7,4.8,0.6
19.205,616702.095,-0.00013,0.00013,0.0004,7,4.8,0.6
19.225,616702.116,-0.00013,0.00013,0.0004,7,4.8,0.6
19.243,616702.136,-0.00013,0.00013,-0.00067,7,4.8,0.6
19.268,616702.156,-0.00013,0.00013,0.0004,7,4.8,0.6
19.285,616702.176,-0.00013,0.00013,-0.00067,7,4.8,0.6
19.309,616702.196,-0.00013,0.0012,0.0004,7,4.8,0.6
19.326,616702.216,-0.00013,-0.002,0.0004,7,4.8,0.6
19.347,616702.236,-0.00013,0.00226,0.0004,7,4.8,0.6
19.366,616702.256,-0.00013,-0.002,-0.00067,7,4.8,0.6
19.381,616702.276,-0.00013,0.00226,0.0004,7,4.8,0.6
19.402,616702.297,-0.00013,-0.00093,0.0004,7,4.8,0.6
19.428,616702.317,-0.00013,0.00013,-0.00067,7,4.8,0.6
19.445,616702.337,-0.0012,0.00013,0.0004,7,4.8,0.6
19.464,616702.357,-0.00013,-0.00093,0.0004,7,4.8,0.6
19.508,616702.377,-0.00013,0.0012,0.0004,7,4.8,0.6
19.509,616702.397,-0.00013,-0.00093,-0.00067,7,4.8,0.6
19.526,616702.417,0.00093,0.00013,-0.00067,7,4.8,0.6
19.543,616702.437,0.00093,0.00013,0.0004,7,4.8,0.6
19.562,616702.458,-0.00013,0.00013,-0.00067,7,4.8,0.6
19.584,616702.478,-0.0012,0.0012,0.0004,7,4.8,0.6
19.605,616702.498,-0.0012,0.00013,0.0004,7,4.8,0.6
19.626,616702.518,-0.00013,0.0012,0.0004,7,4.8,0.6
19.645,616702.538,0.00093,0.00013,0.0004,7,4.8,0.6
19.667,616702.558,0.00093,0.0012,-0.00067,7,4.8,0.6
19.685,616702.578,0.00093,0.00013,-0.00067,7,4.8,0.6
19.705,616702.598,-0.00013,0.00013,0.0004,7,4.8,0.6
19.725,616702.619,-0.0012,0.00013,0.0004,7,4.8,0.6
19.745,616702.639,-0.0012,0.00013,0.0004,7,4.8,0.6
19.765,616702.659,-0.00013,0.00013,0.0004,7,4.8,0.6
19.785,616702.679,-0.00013,0.00013,0.0004,7,4.8,0.6
19.805,616702.699,-0.00013,0.00013,0.0004,7,4.8,0.6
19.828,616702.719,-0.00013,0.00013,0.0004,7,4.8,0.6
19.846,616702.739,-0.00013,0.00013,-0.00067,7,4.8,0.6
19.868,616702.759,-0.00013,0.00013,0.0004,7,4.8,0.6
19.885,616702.78,-0.00013,0.00013,0.0004,7,4.8,0.6
19.906,616702.8,-0.00013,0.00013,-0.00067,7,4.8,0.6
19.928,616702.82,-0.0012,-0.00093,0.0004,7,4.8,0.6
19.948,616702.84,-0.00013,0.00226,-0.00067,7,4.8,0.6
19.965,616702.86,0.00093,-0.00306,-0.00067,7,4.8,0.6
19.987,616702.88,-0.00013,0.00333,0.0004,7,4.8,0.6
20.007,616702.9,0.00093,-0.002,0.0004,7,4.8,0.6
20.028,616702.92,-0.0012,0.0012,-0.00067,7,4.8,0.6
20.049,616702.941,-0.0012,-0.002,0.0004,7,4.8,0.6
20.066,616702.961,-0.00226,0.00333,0.0004,7,4.8,0.6
20.087,616702.981,-0.00013,-0.002,-0.00067,7,4.8,0.6
20.109,616703.001,0.00093,0.0012,0.00146,7,4.8,0.6
20.127,616703.021,0.002,0.00013,-0.00067,7,4.8,0.6
20.146,616703.041,0.00093,-0.002,-0.00067,7,4.8,0.6
20.166,616703.061,-0.0012,0.00226,0.0004,7,4.8,0.6
20.186,616703.081,-0.00226,-0.002,-0.00067,7,4.8,0.6
20.207,616703.101,-0.0012,0.00226,0.0004,7,4.8,0.6
20.228,616703.122,-0.0012,0.00013,-0.00067,7,4.8,0.6
20.249,616703.142,0.00093,-0.00093,-0.00067,7,4.8,0.6
20.268,616703.162,0.002,0.00226,0.0004,7,4.8,0.6
20.289,616703.182,0.002,-0.00093,0.0004,7,4.8,0.6
20.311,616703.202,0.00093,0.0012,0.0004,7,4.8,0.6
20.328,616703.222,-0.0012,0.00013,-0.00067,7,4.8,0.6
20.348,616703.242,-0.0012,0.0012,0.0004,7,4.8,0.6
20.367,616703.262,-0.0012,-0.00093,-0.00067,7,4.8,0.6
20.389,616703.283,-0.00013,0.00013,0.0004,7,4.8,0.6
20.41,616703.303,0.00093,0.0012,0.0004,7,4.8,0.6
20.432,616703.323,0.00093,-0.00093,-0.00067,7,4.8,0.6
20.451,616703.343,0.00093,0.0012,0.0004,7,4.8,0.6
20.471,616703.363,-0.0012,0.00013,0.0004,7,4.8,0.6
20.489,616703.383,-0.0012,0.00013,0.0004,7,4.8,0.6
20.512,616703.403,-0.0012,-0.00093,-0.00067,7,4.8,0.6
20.531,616703.423,-0.00013,0.0012,-0.00067,7,4.8,0.6
20.551,616703.444,-0.00013,0.0012,0.0004,7,4.8,0.6
20.568,616703.464,-0.00013,-0.00306,0.0004,7,4.8,0.6
20.591,616703.484,-0.00013,0.00333,0.0004,7,4.8,0.6
20.612,616703.504,-0.00013,-0.00306,-0.00067,7,4.8,0.6
20.633,616703.524,-0.00013,0.00226,-0.00067,7,4.8,0.6
20.654,616703.544,-0.0012,0.00013,0.0004,7,4.8,0.6
20.671,616703.564,-0.00013,0.00013,0.0004,7,4.8,0.6
20.692,616703.584,-0.00013,0.00013,0.0004,7,4.8,0.6
20.712,616703.605,-0.00013,0.00013,-0.00067,7,4.8,0.6
20.733,616703.625,-0.0012,0.0012,-0.00067,7,4.8,0.6
20.752,616703.645,-0.00013,0.00013,0.0004,7,4.8,0.6
20.772,616703.665,-0.00013,0.00013,-0.00067,7,4.8,0.6
20.792,616703.685,-0.00013,0.00013,-0.00067,7,4.8,0.6
20.812,616703.705,-0.00013,0.00013,-0.00067,7,4.8,0.6
20.832,616703.725,-0.00013,0.00013,0.0004,7,4.8,0.6
20.851,616703.745,-0.0012,0.00013,0.0004,7,4.8,0.6
20.871,616703.766,-0.0012,0.0012,0.0004,7,4.8,0.6
20.895,616703.786,-0.00013,0.00013,-0.00173,7,4.8,0.6
20.913,616703.806,-0.00013,0.00013,-0.00067,7,4.8,0.6
20.932,616703.826,0.00093,0.0012,0.0004,7,4.8,0.6
20.954,616703.846,0.00093,-0.00093,0.0004,7,4.8,0.6
20.974,616703.866,-0.00013,0.0012,-0.00067,7,4.8,0.6
20.994,616703.886,-0.00013,0.00013,-0.00067,7,4.8,0.6
21.013,616703.906,-0.0012,0.00226,-0.00067,7,4.8,0.6
21.035,616703.926,-0.00013,-0.002,0.0004,7,4.8,0.6
21.055,616703.947,0.00093,0.0012,0.0004,7,4.8,0.6
21.072,616703.967,0.002,-0.00093,-0.00067,7,4.8,0.6
21.1,616703.987,0.00093,-0.00093,-0.00067,7,4.8,0.6
21.113,616704.007,-0.0012,0.00226,-0.00067,7,4.8,0.6
21.133,616704.027,-0.0012,-0.00093,-0.00067,7,4.8,0.6
21.153,616704.047,-0.00013,0.0012,0.0004,7,4.8,0.6
21.173,616704.067,0.00093,-0.002,-0.00173,7,4.8,0.6
21.196,616704.087,0.002,0.0012,0.00146,7,4.8,0.6
21.214,616704.108,0.002,-0.00732,-0.01025,7,4.8,0.6
21.236,616704.128,0.002,-0.00093,0.00999,7,4.8,0.6
21.255,616704.148,-0.0012,0.01931,0.01531,7,4.8,0.6
21.275,616704.168,-0.0012,-0.05313,0.00679,7,4.8,0.6
21.294,616704.188,-0.00759,0.0779,-0.00067,7,4.8,0.6
21.316,616704.208,0.00306,-0.06272,-0.01877,7,4.8,0.6
21.334,616704.228,0.01371,0.08003,-0.05286,7,4.8,0.6
21.365,616704.248,0.02117,0.00013,-0.06884,7,4.8,0.6
21.374,616704.269,0.01158,0.02037,-0.11891,7,4.8,0.6
21.394,616704.289,-0.00226,0.02676,-0.16045,7,4.8,0.6
21.417,616704.309,-0.01931,-0.01798,-0.19773,7,4.8,0.6
21.436,616704.329,-0.03635,0.01824,-0.22543,7,4.8,0.6
21.461,616704.349,-0.04594,-0.02756,-0.24673,7,4.8,0.6
21.495,616704.369,-0.05339,0.01505,-0.21478,7,4.8,0.6
21.499,616704.389,-0.04381,-0.00093,-0.16045,7,4.8,0.6
21.515,616704.409,-0.01611,0.02144,-0.08588,7,4.8,0.6
21.534,616704.43,0.01691,0.02144,-0.00919,7,4.8,0.6
21.556,616704.45,0.04674,0.00546,0.06751,7,4.8,0.6
21.575,616704.47,0.06272,0.02144,0.11758,7,4.8,0.6
21.597,616704.49,0.06272,0.00439,0.10373,7,4.8,0.6
21.618,616704.51,0.04567,0.00333,0.06644,7,4.8,0.6
21.637,616704.53,0.01585,-0.00839,0.0249,7,4.8,0.6
21.658,616704.55,-0.01505,-0.00945,-0.02943,7,4.8,0.6
21.678,616704.57,-0.04061,-0.00413,-0.08162,7,4.8,0.6
21.699,616704.591,-0.05446,-0.00093,-0.11784,7,4.8,0.6
21.722,616704.611,-0.05446,-0.00093,-0.15832,7,4.8,0.6
21.738,616704.631,-0.04274,0.00866,-0.18495,7,4.8,0.6
21.757,616704.651,-0.02783,0.01079,-0.19134,7,4.8,0.6
21.778,616704.671,-0.01398,0.01931,-0.16578,7,4.8,0.6
21.797,616704.691,0.00093,0.0257,-0.10506,7,4.8,0.6
21.821,616704.711,0.01904,0.0257,-0.03901,7,4.8,0.6
21.839,616704.731,0.04035,0.0225,0.00466,7,4.8,0.6
21.86,616704.751,0.05845,0.0012,0.04194,7,4.8,0.6
21.879,616704.772,0.06591,-0.00732,0.05473,7,4.8,0.6
21.898,616704.792,0.05419,-0.01371,0.0494,7,4.8,0.6
21.919,616704.812,0.0233,-0.01585,0.0462,7,4.8,0.6
21.938,616704.832,-0.01718,-0.00306,0.05153,7,4.8,0.6
21.958,616704.852,-0.04913,-0.00839,0.05899,7,4.8,0.6
21.978,616704.872,-0.05659,-0.00093,0.06112,7,4.8,0.6
22.001,616704.892,-0.04487,-0.00626,0.05473,7,4.8,0.6
22.023,616704.912,-0.02037,-0.03715,0.05366,7,4.8,0.6
22.039,616704.933,-0.00226,-0.00519,0.0526,7,4.8,0.6
22.062,616704.953,0.00626,-0.06272,0.05366,7,4.8,0.6
22.082,616704.973,-0.0012,0.01718,0.0739,7,4.8,0.6
22.102,616704.993,-0.01398,-0.04887,0.08029,7,4.8,0.6
22.118,616705.013,-0.0225,0.01079,0.0771,7,4.8,0.6
22.142,616705.033,-0.01292,-0.00945,0.07497,7,4.8,0.6
22.161,616705.053,0.00945,0.0012,0.0707,7,4.8,0.6
22.18,616705.073,0.03502,0.0012,0.0707,7,4.8,0.6
22.199,616705.094,0.04461,-0.01478,0.0707,7,4.8,0.6
22.222,616705.114,0.02756,0.00972,0.06964,7,4.8,0.6
22.24,616705.134,-0.00333,-0.0233,0.06857,7,4.8,0.6
22.263,616705.154,-0.03316,0.01611,0.06218,7,4.8,0.6
22.284,616705.174,-0.03742,-0.01371,0.05686,7,4.8,0.6
22.3,616705.194,-0.01718,0.00652,0.05899,7,4.8,0.6
22.321,616705.214,0.01585,-0.00306,0.05366,7,4.8,0.6
22.344,616705.234,0.04141,-0.01371,0.05579,7,4.8,0.6
22.363,616705.255,0.04141,0.01079,0.0526,7,4.8,0.6
22.383,616705.275,0.02011,-0.0233,0.0494,7,4.8,0.6
22.404,616705.295,-0.01185,0.01824,0.04727,7,4.8,0.6
22.422,616705.315,-0.02889,-0.01691,0.04301,7,4.8,0.6
22.444,616705.335,-0.02676,0.00972,0.04301,7,4.8,0.6
22.464,616705.355,-0.00652,-0.00732,0.04088,7,4.8,0.6
22.482,616705.375,0.01691,-0.00519,0.03981,7,4.8,0.6
22.505,616705.395,0.02756,0.00333,0.03768,7,4.8,0.6
22.524,616705.416,0.02224,-0.00945,0.03449,7,4.8,0.6
22.544,616705.436,0.00626,0.00866,0.03342,7,4.8,0.6
22.563,616705.456,-0.00759,-0.00839,0.03023,7,4.8,0.6
22.585,616705.476,-0.01611,0.00333,0.03023,7,4.8,0.6
22.604,616705.496,-0.01185,-0.00626,0.0281,7,4.8,0.6
22.623,616705.516,-0.00226,-0.00306,0.02703,7,4.8,0.6
22.644,616705.536,0.00732,0.00013,0.0249,7,4.8,0.6
22.663,616705.556,0.01158,-0.00413,0.02383,7,4.8,0.6
22.683,616705.576,0.01052,0.00439,0.02064,7,4.8,0.6
22.706,616705.597,0.00626,-0.00732,0.01957,7,4.8,0.6
22.728,616705.617,-0.00013,0.00333,0.01851,7,4.8,0.6
22.746,616705.637,-0.00439,-0.00732,0.01744,7,4.8,0.6
22.764,616705.657,-0.00546,0.00333,0.01638,7,4.8,0.6
22.783,616705.677,-0.00333,-0.002,0.01425,7,4.8,0.6
22.804,616705.697,0.00093,0.0012,0.01212,7,4.8,0.6
22.828,616705.717,0.00413,0.0012,0.01105,7,4.8,0.6
22.844,616705.737,0.00626,-0.002,0.00999,7,4.8,0.6
22.864,616705.758,0.00519,0.00013,0.00999,7,4.8,0.6
22.884,616705.778,0.00093,-0.00306,0.00892,7,4.8,0.6
22.904,616705.798,-0.00333,0.00226,0.00679,7,4.8,0.6
22.925,616705.818,-0.00546,-0.00093,0.00573,7,4.8,0.6
22.945,616705.838,-0.00333,0.0012,0.00466,7,4.8,0.6
22.965,616705.858,-0.00013,0.00013,0.0036,7,4.8,0.6
22.984,616705.878,0.00413,-0.00093,0.0036,7,4.8,0.6
23.007,616705.898,0.00519,-0.00093,0.00253,7,4.8,0.6
23.028,616705.919,0.00413,-0.00093,0.00146,7,4.8,0.6
23.044,616705.939,-0.00013,0.0012,0.0004,7,4.8,0.6
23.064,616705.959,-0.00226,-0.002,-0.00067,7,4.8,0.6
23.085,616705.979,-0.00226,0.0012,-0.00067,7,4.8,0.6
23.107,616705.999,0.00093,-0.002,-0.00067,7,4.8,0.6
23.125,616706.019,0.00306,0.00226,-0.00067,7,4.8,0.6
23.147,616706.039,0.00413,-0.00519,-0.00067,7,4.8,0.6
23.165,616706.059,0.00413,0.00226,-0.00067,7,4.8,0.6
23.187,616706.08,0.00093,-0.00093,-0.00067,7,4.8,0.6
23.205,616706.1,-0.00333,0.00013,0.0004,7,4.8,0.6
23.228,616706.12,-0.00439,0.00013,0.0004,7,4.8,0.6
23.245,616706.14,-0.00226,0.00226,0.0004,7,4.8,0.6
23.267,616706.16,0.00306,-0.01371,-0.00173,7,4.8,0.6
23.288,616706.18,0.00839,0.01611,-0.00067,7,4.8,0.6
23.306,616706.2,0.00945,-0.01265,-0.0028,7,4.8,0.6
23.329,616706.22,0.00413,0.00333,0.0004,7,4.8,0.6
23.347,616706.24,-0.00439,0.00546,0.00146,7,4.8,0.6
23.373,616706.261,-0.01292,-0.00626,0.00146,7,4.8,0.6
23.386,616706.281,-0.01292,0.00439,0.0004,7,4.8,0.6
23.408,616706.301,-0.00546,-0.00093,0.00146,7,4.8,0.6
23.428,616706.321,0.00519,-0.002,-0.00067,7,4.8,0.6
23.446,616706.341,0.01371,0.00013,-0.00067,7,4.8,0.6
23.494,616706.361,0.01052,0.00226,0.0004,7,4.8,0.6
23.497,616706.381,0.00093,-0.00093,0.0004,7,4.8,0.6
23.508,616706.401,-0.00866,0.0012,0.00146,7,4.8,0.6
23.527,616706.422,-0.01185,-0.00093,0.0004,7,4.8,0.6
23.547,616706.442,-0.00759,-0.00093,-0.00067,7,4.8,0.6
23.567,616706.462,0.002,0.0012,-0.00067,7,4.8,0.6
23.587,616706.482,0.01052,-0.00093,-0.00067,7,4.8,0.6
23.608,616706.502,0.00945,0.0012,0.0004,7,4.8,0.6
23.63,616706.522,0.00413,0.0012,0.0004,7,4.8,0.6
23.65,616706.542,-0.00439,-0.00093,0.0004,7,4.8,0.6
23.67,616706.562,-0.00866,0.00013,0.0004,7,4.8,0.6
23.689,616706.583,-0.00759,-0.00093,-0.00067,7,4.8,0.6
23.712,616706.603,-0.00226,0.0012,-0.00067,7,4.8,0.6
23.729,616706.623,0.00413,-0.00093,-0.00067,7,4.8,0.6
23.752,616706.643,0.00626,0.0012,0.0004,7,4.8,0.6
23.771,616706.663,0.00413,0.00013,0.0004,7,4.8,0.6
23.791,616706.683,-0.00013,0.00013,0.0004,7,4.8,0.6
23.812,616706.703,-0.00439,0.00013,-0.00067,7,4.8,0.6
23.831,616706.723,-0.00546,-0.00093,-0.00067,7,4.8,0.6
23.85,616706.744,-0.00333,-0.00093,-0.00067,7,4.8,0.6
23.869,616706.764,-0.00013,0.00013,-0.00067,7,4.8,0.6
23.891,616706.784,0.00413,-0.00093,0.0004,7,4.8,0.6
23.911,616706.804,0.00306,0.00333,0.0004,7,4.8,0.6
23.93,616706.824,0.00306,-0.00413,-0.00067,7,4.8,0.6
23.952,616706.844,0.00093,0.00333,0.0004,7,4.8,0.6
23.971,616706.864,-0.00013,-0.00306,-0.00067,7,4.8,0.6
23.99,616706.884,-0.0012,0.0012,-0.00067,7,4.8,0.6
24.013,616706.905,-0.0012,-0.00093,0.0004,7,4.8,0.6
24.033,616706.925,-0.0012,-0.002,-0.00067,7,4.8,0.6
24.053,616706.945,-0.00759,0.03529,0.0036,7,4.8,0.6
24.073,616706.965,-0.01292,-0.05206,-0.00067,7,4.8,0.6
24.098,616706.985,-0.01824,0.05872,0.00786,7,4.8,0.6
24.113,616707.005,-0.01079,-0.04461,-0.0028,7,4.8,0.6
24.13,616707.025,0.00626,0.01398,-0.00173,7,4.8,0.6
24.152,616707.045,0.02224,0.00866,0.0004,7,4.8,0.6
24.172,616707.065,0.0265,-0.0233,-0.00067,7,4.8,0.6
24.191,616707.086,0.01265,0.02463,-0.00067,7,4.8,0.6
24.214,616707.106,-0.00866,-0.01371,0.00146,7,4.8,0.6
24.234,616707.126,-0.02783,0.01079,0.0004,7,4.8,0.6
24.254,616707.146,-0.02783,-0.002,0.00146,7,4.8,0.6
24.276,616707.166,-0.01079,-0.00306,0.0004,7,4.8,0.6
24.293,616707.186,0.01158,0.00226,-0.00067,7,4.8,0.6
24.314,616707.206,0.0265,-0.00732,0.00146,7,4.8,0.6
24.333,616707.226,0.02437,0.00866,-0.00173,7,4.8,0.6
24.366,616707.247,0.00626,-0.00519,0.0004,7,4.8,0.6
24.379,616707.267,-0.01292,0.00759,0.00146,7,4.8,0.6
24.393,616707.287,-0.02357,-0.00413,-0.00067,7,4.8,0.6
24.415,616707.307,-0.01931,-0.00093,0.00146,7,4.8,0.6
24.436,616707.327,-0.00439,0.00333,-0.00067,7,4.8,0.6
24.453,616707.347,0.01052,-0.00626,-0.00067,7,4.8,0.6
24.473,616707.367,0.01691,0.00866,-0.00067,7,4.8,0.6
24.494,616707.387,0.01371,-0.00626,0.0004,7,4.8,0.6
24.515,616707.408,0.00093,0.00652,0.00146,7,4.8,0.6
24.537,616707.428,-0.00866,-0.00519,-0.00067,7,4.8,0.6
24.556,616707.448,-0.01292,0.00226,0.0004,7,4.8,0.6
24.576,616707.468,-0.01079,0.00013,-0.00067,7,4.8,0.6
24.596,616707.488,-0.00226,-0.002,-0.00067,7,4.8,0.6
24.615,616707.508,0.00519,0.00439,0.0004,7,4.8,0.6
24.636,616707.528,0.01052,-0.00306,0.0004,7,4.8,0.6
24.655,616707.548,0.00732,0.00333,0.00146,7,4.8,0.6
24.675,616707.569,0.00093,-0.00306,0.0004,7,4.8,0.6
24.696,616707.589,-0.00546,0.0012,-0.00067,7,4.8,0.6
24.715,616707.609,-0.00759,0.00013,-0.00067,7,4.8,0.6
24.737,616707.629,-0.00652,0.00013,0.0004,7,4.8,0.6
24.754,616707.649,-0.00226,0.00226,0.0004,7,4.8,0.6
24.775,616707.669,0.00413,-0.00093,0.0004,7,4.8,0.6
24.796,616707.689,0.00732,0.00226,-0.00067,7,4.8,0.6
24.817,616707.709,0.00519,-0.00306,-0.00067,7,4.8,0.6
24.836,616707.73,0.002,0.00226,0.0004,7,4.8,0.6
24.858,616707.75,-0.00333,-0.00306,-0.00067,7,4.8,0.6
24.879,616707.77,-0.00652,0.00226,0.0004,7,4.8,0.6
24.9,616707.79,-0.00546,0.00013,-0.00067,7,4.8,0.6
24.921,616707.81,-0.0012,0.00013,-0.00067,7,4.8,0.6
24.94,616707.83,0.00306,0.0012,0.0004,7,4.8,0.6
24.959,616707.85,0.00519,-0.00093,0.0004,7,4.8,0.6
24.977,616707.87,0.00413,0.00226,-0.00067,7,4.8,0.6
25.001,616707.89,0.00093,-0.002,-0.00067,7,4.8,0.6
25.017,616707.911,-0.00333,0.0012,-0.00067,7,4.8,0.6
25.041,616707.931,-0.00546,0.00013,0.0004,7,4.8,0.6
25.06,616707.951,-0.00439,-0.00093,-0.00067,7,4.8,0.6
25.079,616707.971,-0.00013,0.0012,-0.00067,7,4.8,0.6
25.097,616707.991,0.00306,-0.00093,-0.00067,7,4.8,0.6
25.116,616708.011,0.00413,0.00013,-0.00067,7,4.8,0.6
25.137,616708.031,0.002,0.00013,0.0004,7,4.8,0.6
25.157,616708.051,-0.00013,-0.00093,-0.00067,7,4.8,0.6
25.177,616708.072,-0.00333,0.00333,0.0004,7,4.8,0.6
25.198,616708.092,-0.00439,-0.00306,-0.00067,7,4.8,0.6
25.22,616708.112,-0.00226,0.00226,-0.00067,7,4.8,0.6
25.242,616708.132,0.00093,-0.002,0.0004,7,4.8,0.6
25.26,616708.152,0.00306,0.00013,-0.00067,7,4.8,0.6
25.278,616708.172,0.00306,0.00013,0.0004,7,4.8,0.6
25.298,616708.192,0.00093,-0.00093,-0.00067,7,4.8,0.6
25.318,616708.212,-0.0012,0.00226,0.0004,7,4.8,0.6
25.341,616708.233,-0.00333,-0.002,0.0004,7,4.8,0.6
25.36,616708.253,-0.00226,0.00226,-0.00067,7,4.8,0.6
25.378,616708.273,-0.0012,0.00013,0.0004,7,4.8,0.6
25.398,616708.293,0.00093,0.00013,-0.00067,7,4.8,0.6
25.419,616708.313,0.002,0.00226,0.0004,7,4.8,0.6
25.44,616708.333,0.00306,0.00013,0.0004,7,4.8,0.6
25.461,616708.353,0.00093,0.00013,-0.00067,7,4.8,0.6
25.492,616708.373,-0.0012,0.00013,0.0004,7,4.8,0.6
25.499,616708.394,-0.00333,0.00013,-0.00067,7,4.8,0.6
25.519,616708.414,-0.00333,0.00013,0.0004,7,4.8,0.6
25.54,616708.434,-0.00013,0.00013,0.0004,7,4.8,0.6
25.558,616708.454,0.00093,0.0012,0.0004,7,4.8,0.6
25.579,616708.474,0.00306,0.00013,0.0004,7,4.8,0.6
25.598,616708.494,0.002,0.00013,-0.00067,7,4.8,0.6
25.621,616708.514,-0.00013,0.00013,-0.00067,7,4.8,0.6
25.642,616708.534,-0.00226,0.0012,-0.00067,7,4.8,0.6
25.662,616708.555,-0.00226,-0.00093,0.0004,7,4.8,0.6
25.68,616708.575,-0.0012,0.00013,0.0004,7,4.8,0.6
25.705,616708.595,0.00093,0.00013,0.0004,7,4.8,0.6
25.728,616708.615,0.002,0.00013,-0.00067,7,4.8,0.6
25.744,616708.635,0.002,0.00013,0.0004,7,4.8,0.6
25.764,616708.655,-0.00013,0.0012,-0.00067,7,4.8,0.6
25.786,616708.675,-0.0012,-0.00093,-0.00067,7,4.8,0.6
25.804,616708.695,-0.00226,0.00226,0.0004,7,4.8,0.6
25.826,616708.715,-0.0012,-0.002,0.0004,7,4.8,0.6
25.842,616708.736,-0.00013,0.0012,0.0004,7,4.8,0.6
25.864,616708.756,0.00093,-0.00093,0.0004,7,4.8,0.6
25.887,616708.776,0.00093,0.00013,-0.00067,7,4.8,0.6
25.907,616708.796,-0.00013,0.0012,0.0004,7,4.8,0.6
25.922,616708.816,-0.00013,-0.00093,0.0004,7,4.8,0.6
25.948,616708.836,-0.00013,0.0012,0.0004,7,4.8,0.6
25.965,616708.856,-0.0012,0.00013,0.0004,7,4.8,0.6
25.984,616708.876,-0.0012,0.00013,-0.00067,7,4.8,0.6
26.003,616708.897,-0.0012,0.00013,0.0004,7,4.8,0.6
26.025,616708.917,0.00093,0.00013,-0.00067,7,4.8,0.6
26.045,616708.937,0.00093,0.00013,0.0004,7,4.8,0.6
26.064,616708.957,0.00093,-0.00093,0.0004,7,4.8,0.6
26.086,616708.977,-0.00013,0.0012,0.0004,7,4.8,0.6
26.104,616708.997,-0.0012,0.00013,0.0004,7,4.8,0.6
26.125,616709.017,-0.0012,0.00013,-0.00067,7,4.8,0.6
26.144,616709.037,-0.0012,0.00013,0.0004,7,4.8,0.6
26.163,616709.058,-0.00013,0.0012,0.0004,7,4.8,0.6
26.186,616709.078,0.00093,0.00013,0.0004,7,4.8,0.6
26.205,616709.098,0.00093,0.00013,0.0004,7,4.8,0.6
26.223,616709.118,-0.00013,0.00013,0.0004,7,4.8,0.6
26.243,616709.138,-0.00013,-0.00093,-0.00067,7,4.8,0.6
26.263,616709.158,-0.0012,0.00013,0.0004,7,4.8,0.6
26.283,616709.178,-0.0012,0.00013,-0.00067,7,4.8,0.6
26.303,616709.198,-0.00013,0.00013,0.0004,7,4.8,0.6
26.326,616709.219,-0.00013,0.00013,0.0004,7,4.8,0.6
26.348,616709.239,-0.00013,0.00013,-0.00067,7,4.8,0.6
26.365,616709.259,0.00093,0.00013,-0.00067,7,4.8,0.6
26.385,616709.279,-0.00013,0.00013,0.0004,7,4.8,0.6
26.407,616709.299,-0.00013,0.00013,-0.00067,7,4.8,0.6
26.425,616709.319,-0.00013,0.0012,0.0004,7,4.8,0.6
26.446,616709.339,-0.0012,-0.00093,0.0004,7,4.8,0.6
26.467,616709.359,-0.00013,0.00013,0.0004,7,4.8,0.6
26.485,616709.38,-0.00013,0.00013,-0.00067,7,4.8,0.6
26.507,616709.4,-0.00013,0.00013,0.0004,7,4.8,0.6
26.526,616709.42,-0.00013,-0.00093,0.0004,7,4.8,0.6
26.547,616709.44,-0.00013,0.00013,-0.00067,7,4.8,0.6
26.568,616709.46,-0.00013,0.0012,-0.00067,7,4.8,0.6
26.586,616709.48,-0.0012,0.00013,0.0004,7,4.8,0.6
26.609,616709.5,-0.00013,0.00013,-0.00067,7,4.8,0.6
26.628,616709.52,-0.00013,0.0012,0.0004,7,4.8,0.6
26.648,616709.54,-0.00013,0.0012,0.0004,7,4.8,0.6
26.667,616709.561,-0.00013,-0.00093,0.0004,7,4.8,0.6
26.688,616709.581,-0.00013,0.0012,-0.00067,7,4.8,0.6
26.707,616709.601,-0.00013,0.00013,-0.00067,7,4.8,0.6
26.727,616709.621,-0.00013,0.00013,0.0004,7,4.8,0.6
26.748,616709.641,-0.00013,0.00013,-0.00067,7,4.8,0.6
26.767,616709.661,-0.00013,0.0012,-0.00067,7,4.8,0.6
26.787,616709.681,-0.00013,0.00013,0.0004,7,4.8,0.6
26.809,616709.701,-0.00013,0.00013,-0.00067,7,4.8,0.6
26.828,616709.722,-0.00013,0.0012,-0.00067,7,4.8,0.6
26.849,616709.742,-0.00013,0.00013,0.0004,7,4.8,0.6
26.869,616709.762,-0.00013,0.00013,0.0004,7,4.8,0.6
26.89,616709.782,-0.00013,0.00013,0.0004,7,4.8,0.6
26.912,616709.802,-0.0012,0.00013,0.0004,7,4.8,0.6
26.929,616709.822,-0.0012,0.00013,0.0004,7,4.8,0.6
26.948,616709.842,-0.00013,0.00013,-0.00067,7,4.8,0.6
26.97,616709.862,-0.00013,0.00013,0.0004,7,4.8,0.6
26.993,616709.883,0.00093,0.00013,-0.00067,7,4.8,0.6
27.009,616709.903,-0.00013,0.00013,0.0004,7,4.8,0.6
27.032,616709.923,-0.00013,0.00013,-0.00067,7,4.8,0.6
27.049,616709.943,-0.00013,0.00013,0.0004,7,4.8,0.6
27.07,616709.963,-0.0012,0.0012,0.0004,7,4.8,0.6
27.09,616709.983,-0.00013,0.00013,-0.00067,7,4.8,0.6
27.109,616710.003,-0.00013,0.00013,0.0004,7,4.8,0.6
27.13,616710.023,-0.00013,0.00013,0.0004,7,4.8,0.6
27.151,616710.044,-0.00013,0.00013,-0.00067,7,4.8,0.6
27.169,616710.064,-0.00013,0.00013,0.0004,7,4.8,0.6
27.191,616710.084,-0.00013,0.0012,-0.00067,7,4.8,0.6
27.209,616710.104,-0.00013,0.00013,0.0004,7,4.8,0.6
27.232,616710.124,-0.00013,0.00013,0.0004,7,4.8,0.6
27.252,616710.144,-0.00013,0.00013,0.0004,7,4.8,0.6
27.273,616710.164,-0.00013,0.00013,0.0004,7,4.8,0.6
27.293,616710.184,0.00093,0.0012,0.0004,7,4.8,0.6
27.315,616710.204,-0.00013,-0.00093,0.0004,7,4.8,0.6
27.333,616710.225,-0.00013,0.00013,-0.00067,7,4.8,0.6
27.361,616710.245,-0.00013,0.00013,-0.00067,7,4.8,0.6
27.37,616710.265,-0.0012,0.00013,0.0004,7,4.8,0.6
27.389,616710.285,-0.00013,0.00013,0.0004,7,4.8,0.6
27.412,616710.305,-0.00013,0.0012,-0.00067,7,4.8,0.6
27.432,616710.325,-0.00013,0.00013,-0.00067,7,4.8,0.6
27.461,616710.345,-0.00013,-0.00093,0.0004,7,4.8,0.6
27.5,616710.365,-0.00013,0.00013,0.0004,7,4.8,0.6
27.502,616710.386,-0.00013,0.00013,-0.00067,7,4.8,0.6
27.512,616710.406,-0.00013,0.00013,0.0004,7,4.8,0.6
27.531,616710.426,-0.0012,0.00013,-0.00067,7,4.8,0.6
27.551,616710.446,-0.00013,0.00013,-0.00067,7,4.8,0.6
27.571,616710.466,-0.0012,0.00013,0.0004,7,4.8,0.6
27.591,616710.486,-0.00013,0.00013,0.0004,7,4.8,0.6
27.613,616710.506,-0.00013,0.0012,0.0004,7,4.8,0.6
27.633,616710.526,0.00093,0.00013,0.0004,7,4.8,0.6
27.653,616710.547,-0.00013,0.00013,0.0004,7,4.8,0.6
27.673,616710.567,-0.00013,0.0012,0.0004,7,4.8,0.6
27.693,616710.587,-0.00013,0.00013,-0.00067,7,4.8,0.6
27.714,616710.607,-0.0012,0.00013,0.0004,7,4.8,0.6
27.734,616710.627,-0.00013,0.00013,0.0004,7,4.8,0.6
27.755,616710.647,-0.00013,0.00013,-0.00067,7,4.8,0.6
27.775,616710.667,-0.00013,0.00013,0.0004,7,4.8,0.6
27.794,616710.687,-0.0012,0.00013,-0.00067,7,4.8,0.6
27.817,616710.708,-0.00013,0.00013,0.0004,7,4.8,0.6
27.836,616710.728,-0.00013,0.00013,0.0004,7,4.8,0.6
27.855,616710.748,-0.00013,0.00013,0.0004,7,4.8,0.6
27.874,616710.768,-0.00013,0.0012,0.0004,7,4.8,0.6
27.895,616710.788,-0.00013,0.0012,0.0004,7,4.8,0.6
27.916,616710.808,-0.00013,0.00013,0.0004,7,4.8,0.6
27.936,616710.828,-0.0012,0.0012,0.0004,7,4.8,0.6
27.956,616710.848,0.00093,0.00013,-0.00067,7,4.8,0.6
27.978,616710.869,-0.00013,0.00013,0.0004,7,4.8,0.6
27.994,616710.889,-0.00013,-0.00093,0.0004,7,4.8,0.6
28.015,616710.909,-0.00013,0.00013,-0.00067,7,4.8,0.6
28.038,616710.929,-0.0012,0.00013,0.0004,7,4.8,0.6
28.058,616710.949,-0.00013,0.00013,0.0004,7,4.8,0.6
28.079,616710.969,-0.00013,0.00013,0.0004,7,4.8,0.6
28.097,616710.989,-0.00013,0.00013,0.0004,7,4.8,0.6
28.116,616711.009,-0.00013,0.00013,-0.00067,7,4.8,0.6
28.134,616711.029,-0.00013,0.00013,-0.00067,7,4.8,0.6
28.154,616711.05,-0.00013,0.00013,-0.00067,7,4.8,0.6
28.176,616711.07,-0.00013,0.00013,0.0004,7,4.8,0.6
28.196,616711.09,-0.00013,0.00013,-0.00067,7,4.8,0.6
28.215,616711.11,-0.00013,0.00013,0.0004,7,4.8,0.6
28.236,616711.13,-0.00013,0.00013,0.0004,7,4.8,0.6
28.258,616711.15,-0.00013,0.00013,-0.00067,7,4.8,0.6
28.275,616711.17,-0.00013,0.00013,0.0004,7,4.8,0.6
28.296,616711.19,-0.00013,0.00013,0.0004,7,4.8,0.6
28.318,616711.211,-0.00013,0.00013,0.0004,7,4.8,0.6
28.339,616711.231,-0.00013,0.00013,0.0004,7,4.8,0.6
28.359,616711.251,-0.00013,0.0012,0.0004,7,4.8,0.6
28.381,616711.271,-0.00013,-0.00093,-0.00067,7,4.8,0.6
28.396,616711.291,-0.00013,0.00013,0.0004,7,4.8,0.6
28.418,616711.311,-0.00013,0.00013,0.0004,7,4.8,0.6
28.44,616711.331,-0.00013,0.0012,0.0004,7,4.8,0.6
28.457,616711.351,-0.00013,-0.00093,-0.00067,7,4.8,0.6
28.478,616711.372,-0.00013,0.00013,0.0004,7,4.8,0.6
28.497,616711.392,-0.00013,0.00013,0.0004,7,4.8,0.6
28.519,616711.412,-0.00013,0.00013,-0.00067,7,4.8,0.6
28.538,616711.432,-0.00013,0.00013,0.0004,7,4.8,0.6
28.558,616711.452,-0.00013,0.00013,0.0004,7,4.8,0.6
28.578,616711.472,-0.00013,0.00013,0.0004,7,4.8,0.6
28.598,616711.492,-0.00013,0.00013,-0.00067,7,4.8,0.6
28.618,616711.512,-0.00013,0.00013,0.0004,7,4.8,0.6
28.638,616711.533,-0.00013,0.0012,0.0004,7,4.8,0.6
28.658,616711.553,-0.00013,0.00013,0.0004,7,4.8,0.6
28.679,616711.573,-0.00013,0.00013,-0.00067,7,4.8,0.6
28.7,616711.593,-0.00013,0.00013,0.0004,7,4.8,0.6
28.719,616711.613,-0.00013,-0.00093,0.0004,7,4.8,0.6
28.74,616711.633,-0.00013,0.00013,0.0004,7,4.8,0.6
28.76,616711.653,-0.00013,0.0012,0.0004,7,4.8,0.6
28.78,616711.673,-0.00013,0.00013,-0.00067,7,4.8,0.6
28.801,616711.694,-0.00013,0.00013,0.0004,7,4.8,0.6
28.822,616711.714,-0.00013,0.0012,0.0004,7,4.8,0.6
28.841,616711.734,-0.00013,0.00013,0.0004,7,4.8,0.6
28.86,616711.754,-0.0012,0.00013,0.0004,7,4.8,0.6
28.885,616711.774,-0.00013,0.00013,0.0004,7,4.8,0.6
28.904,616711.794,-0.00013,0.00013,0.0004,7,4.8,0.6
28.922,616711.814,-0.00013,0.00013,0.0004,7,4.8,0.6
28.944,616711.834,-0.00013,0.00013,0.0004,7,4.8,0.6
28.962,616711.854,-0.00013,0.0012,-0.00067,7,4.8,0.6
28.984,616711.875,-0.00013,-0.00093,0.0004,7,4.8,0.6
29.003,616711.895,-0.00013,0.00013,0.0004,7,4.8,0.6
29.022,616711.915,-0.00013,0.0012,-0.00067,7,4.8,0.6
29.043,616711.935,-0.00013,0.00013,0.0004,7,4.8,0.6
29.065,616711.955,-0.0012,0.00013,0.0004,7,4.8,0.6
29.088,616711.975,-0.00013,0.00013,-0.00067,7,4.8,0.6
29.103,616711.995,-0.00013,-0.00093,-0.00067,7,4.8,0.6
29.122,616712.015,-0.00013,0.00013,0.0004,7,4.8,0.6
29.143,616712.036,-0.00013,0.00013,-0.00067,7,4.8,0.6
29.163,616712.056,-0.00013,0.00226,0.0004,7,4.8,0.6
29.185,616712.076,-0.00013,0.00013,-0.00067,7,4.8,0.6
29.203,616712.096,-0.00013,-0.00093,0.0004,7,4.8,0.6
29.223,616712.116,-0.00013,0.00013,-0.00067,7,4.8,0.6
29.245,616712.136,-0.00013,0.00013,0.0004,7,4.8,0.6
29.265,616712.156,-0.00013,0.00013,0.0004,7,4.8,0.6
29.285,616712.176,-0.00013,0.00013,0.0004,7,4.8,0.6
29.305,616712.197,-0.00013,0.00013,-0.00067,7,4.8,0.6
29.325,616712.217,-0.00013,0.00013,-0.00067,7,4.8,0.6
29.344,616712.237,-0.00013,0.00013,0.0004,7,4.8,0.6
29.365,616712.257,-0.00013,0.00013,0.0004,7,4.8,0.6
29.383,616712.277,-0.00013,-0.00093,0.0004,7,4.8,0.6
29.404,616712.297,-0.00013,0.00013,0.0004,7,4.8,0.6
29.424,616712.317,-0.0012,0.0012,-0.00067,7,4.8,0.6
29.443,616712.337,-0.00013,0.00013,0.0004,7,4.8,0.6
29.493,616712.358,-0.0012,0.00013,0.0004,7,4.8,0.6
29.495,616712.378,-0.00013,0.00013,0.0004,7,4.8,0.6
29.504,616712.398,-0.00013,0.0012,0.0004,7,4.8,0.6
29.523,616712.418,-0.00013,-0.00093,0.0004,7,4.8,0.6
29.542,616712.438,-0.00013,0.00013,-0.00067,7,4.8,0.6
29.563,616712.458,-0.00013,0.00013,0.0004,7,4.8,0.6
29.583,616712.478,-0.00013,0.00013,0.0004,7,4.8,0.6
29.604,616712.498,-0.00013,0.0012,-0.00067,7,4.8,0.6
29.625,616712.518,-0.00013,0.0012,0.0004,7,4.8,0.6
29.645,616712.539,-0.00013,0.00013,0.0004,7,4.8,0.6
29.663,616712.559,-0.00013,0.00013,-0.00067,7,4.8,0.6
29.683,616712.579,-0.00013,0.00013,-0.00067,7,4.8,0.6
29.703,616712.599,-0.00013,0.00013,0.0004,7,4.8,0.6
29.724,616712.619,-0.00013,-0.00093,0.0004,7,4.8,0.6
29.744,616712.639,-0.00013,0.00013,-0.00067,7,4.8,0.6
29.764,616712.659,-0.00013,0.00013,0.0004,7,4.8,0.6
29.787,616712.679,-0.00013,0.00013,-0.00067,7,4.8,0.6
29.805,616712.7,-0.00013,0.0012,0.0004,7,4.8,0.6
29.824,616712.72,-0.00013,0.00013,0.0004,7,4.8,0.6
29.846,616712.74,-0.00013,0.00013,-0.00067,7,4.8,0.6
29.864,616712.76,-0.00013,0.00013,-0.00067,7,4.8,0.6
29.885,616712.78,-0.00013,0.00013,-0.00067,7,4.8,0.6
29.904,616712.8,-0.00013,0.00013,0.0004,7,4.8,0.6
29.924,616712.82,-0.00013,0.00013,-0.00067,7,4.8,0.6
29.945,616712.84,-0.00013,0.00013,0.0004,7,4.8,0.6
29.965,616712.861,-0.0012,0.00013,-0.00067,7,4.8,0.6
29.986,616712.881,-0.00013,-0.00093,0.0004,7,4.8,0.6
30.005,616712.901,-0.00013,0.0012,0.0004,7,4.8,0.6
30.025,616712.921,-0.00013,0.00013,-0.00067,7,4.8,0.6
30.047,616712.941,-0.00013,0.00013,-0.00067,7,4.8,0.6
30.069,616712.961,-0.00013,0.00013,0.0004,7,4.8,0.6
30.086,616712.981,-0.00013,0.0012,0.0004,7,4.8,0.6
30.107,616713.001,-0.0012,0.00013,0.0004,7,4.8,0.6
30.126,616713.022,-0.0012,0.00013,-0.00067,7,4.8,0.6
30.146,616713.042,-0.00013,0.00013,0.0004,7,4.8,0.6
30.167,616713.062,-0.00013,0.00013,0.0004,7,4.8,0.6
30.186,616713.082,0.00093,0.00013,0.0004,7,4.8,0.6
30.208,616713.102,-0.00013,0.00013,-0.00067,7,4.8,0.6
30.227,616713.122,-0.0012,0.0012,0.0004,7,4.8,0.6
30.249,616713.142,-0.0012,0.00013,0.0004,7,4.8,0.6
30.268,616713.162,-0.00013,0.00013,0.0004,7,4.8,0.6
30.287,616713.183,-0.00013,0.00013,-0.00067,7,4.8,0.6
30.308,616713.203,0.00093,0.00013,0.0004,7,4.8,0.6
30.327,616713.223,-0.00013,0.00013,0.0004,7,4.8,0.6
30.348,616713.243,-0.00013,0.00013,-0.00067,7,4.8,0.6
30.367,616713.263,-0.00013,0.0012,0.0004,7,4.8,0.6
30.389,616713.283,-0.00013,-0.00093,-0.00067,7,4.8,0.6
30.409,616713.303,-0.00013,0.00013,0.0004,7,4.8,0.6
30.429,616713.323,-0.00013,0.0012,0.0004,7,4.8,0.6
30.448,616713.343,-0.0012,0.00013,0.0004,7,4.8,0.6
30.47,616713.364,-0.00013,0.00013,-0.00067,7,4.8,0.6
30.488,616713.384,-0.00013,0.0012,-0.00067,7,4.8,0.6
30.509,616713.404,-0.00013,0.00013,-0.00067,7,4.8,0.6
30.529,616713.424,-0.00013,0.00013,0.0004,7,4.8,0.6
30.55,616713.444,-0.00013,0.00013,-0.00067,7,4.8,0.6
30.571,616713.464,-0.00013,0.0012,0.0004,7,4.8,0.6
30.588,616713.484,-0.0012,-0.00093,0.0004,7,4.8,0.6
30.61,616713.504,-0.00013,0.00013,-0.00067,7,4.8,0.6
30.63,616713.525,-0.00013,0.00013,0.0004,7,4.8,0.6
30.65,616713.545,-0.00013,0.00013,-0.00067,7,4.8,0.6
30.671,616713.565,-0.00013,0.00013,-0.00067,7,4.8,0.6
30.689,616713.585,-0.00013,0.0012,0.0004,7,4.8,0.6
30.71,616713.605,-0.00013,-0.00093,-0.00067,7,4.8,0.6
30.731,616713.625,-0.00013,0.00013,0.0004,7,4.8,0.6
30.752,616713.645,-0.0012,0.00013,-0.00067,7,4.8,0.6
30.769,616713.665,-0.00013,0.00013,-0.00067,7,4.8,0.6
30.791,616713.686,0.00093,-0.00093,0.0004,7,4.8,0.6
30.81,616713.706,-0.00013,0.00013,0.0004,7,4.8,0.6
30.831,616713.726,-0.00013,0.0012,0.0004,7,4.8,0.6
30.85,616713.746,-0.00013,0.00013,0.0004,7,4.8,0.6
30.872,616713.766,-0.00013,0.00013,0.0004,7,4.8,0.6
30.891,616713.786,-0.0012,0.00013,0.0004,7,4.8,0.6
30.913,616713.806,-0.00013,0.00013,-0.00067,7,4.8,0.6
30.931,616713.826,-0.00013,0.00013,-0.00067,7,4.8,0.6
30.951,616713.847,-0.00013,0.00013,0.0004,7,4.8,0.6
30.971,616713.867,-0.00013,0.00013,0.0004,7,4.8,0.6
30.993,616713.887,-0.0012,0.00013,0.0004,7,4.8,0.6
31.013,616713.907,-0.00013,0.0012,-0.00067,7,4.8,0.6
31.035,616713.927,-0.00013,0.00013,0.0004,7,4.8,0.6
31.053,616713.947,-0.0012,0.00013,0.0004,7,4.8,0.6
31.073,616713.967,-0.00013,0.00013,0.0004,7,4.8,0.6
31.095,616713.987,-0.00013,0.00013,-0.00067,7,4.8,0.6
31.112,616714.008,-0.00013,0.0012,-0.00067,7,4.8,0.6
31.133,616714.028,-0.00013,0.00013,0.0004,7,4.8,0.6
31.152,616714.048,-0.0012,0.00013,0.0004,7,4.8,0.6
31.175,616714.068,-0.00013,0.0012,0.0004,7,4.8,0.6
31.193,616714.088,-0.0012,-0.00093,-0.00067,7,4.8,0.6
31.213,616714.108,-0.00013,0.00013,-0.00067,7,4.8,0.6
31.235,616714.128,-0.00013,0.00013,0.0004,7,4.8,0.6
31.255,616714.148,-0.00013,0.00013,0.0004,7,4.8,0.6
31.273,616714.168,-0.00013,0.00013,-0.00067,7,4.8,0.6
31.293,616714.189,-0.0012,0.0012,0.0004,7,4.8,0.6
31.313,616714.209,-0.00013,-0.00093,0.0004,7,4.8,0.6
31.333,616714.229,-0.00013,0.00013,0.0004,7,4.8,0.6
31.354,616714.249,-0.00013,0.00013,0.0004,7,4.8,0.6
31.373,616714.269,-0.00013,0.00013,-0.00067,7,4.8,0.6
31.395,616714.289,-0.0012,0.00013,0.0004,7,4.8,0.6
31.414,616714.309,-0.00013,0.00013,0.0004,7,4.8,0.6
31.434,616714.329,-0.00013,0.00013,0.0004,7,4.8,0.6
31.458,616714.35,-0.00013,0.00013,-0.00067,7,4.8,0.6
31.486,616714.37,-0.00013,0.00013,-0.00067,7,4.8,0.6
31.494,616714.39,-0.00013,0.0012,-0.00067,7,4.8,0.6
31.514,616714.41,-0.00013,0.00013,0.0004,7,4.8,0.6
31.536,616714.43,-0.00013,0.00013,0.0004,7,4.8,0.6
31.555,616714.45,-0.0012,0.00013,0.0004,7,4.8,0.6
31.576,616714.47,-0.00013,0.0012,-0.00067,7,4.8,0.6
31.595,616714.49,0.00093,-0.00093,0.0004,7,4.8,0.6
31.617,616714.511,-0.00013,0.00013,0.0004,7,4.8,0.6
31.638,616714.531,-0.00013,0.00013,0.0004,7,4.8,0.6
31.656,616714.551,-0.00013,-0.00093,0.0004,7,4.8,0.6
31.676,616714.571,-0.00013,0.0012,0.0004,7,4.8,0.6
31.697,616714.591,-0.00013,0.00013,0.0004,7,4.8,0.6
31.717,616714.611,-0.00013,0.00013,-0.00067,7,4.8,0.6
31.737,616714.631,-0.00013,0.00013,0.0004,7,4.8,0.6
31.756,616714.651,-0.00013,0.0012,0.0004,7,4.8,0.6
31.777,616714.672,-0.00013,0.0012,0.0004,7,4.8,0.6
31.797,616714.692,-0.00013,0.00013,0.0004,7,4.8,0.6
31.816,616714.712,-0.00013,0.0012,0.0004,7,4.8,0.6
31.837,616714.732,-0.00013,0.00013,0.0004,7,4.8,0.6
31.858,616714.752,-0.0012,0.00013,0.0004,7,4.8,0.6
31.878,616714.772,-0.00013,-0.00093,0.0004,7,4.8,0.6
31.899,616714.792,-0.00013,0.00013,-0.00067,7,4.8,0.6
31.917,616714.812,-0.00013,-0.00093,0.0004,7,4.8,0.6
31.938,616714.832,-0.00013,0.0012,0.0004,7,4.8,0.6
31.959,616714.853,-0.00013,0.0012,0.0004,7,4.8,0.6
31.98,616714.873,-0.00013,0.00013,-0.00067,7,4.8,0.6
31.998,616714.893,-0.00013,-0.00093,0.0004,7,4.8,0.6
32.02,616714.913,-0.00013,0.0012,0.0004,7,4.8,0.6
32.041,616714.933,0.00093,0.00013,-0.00067,7,4.8,0.6
32.058,616714.953,-0.00013,0.00013,0.0004,7,4.8,0.6
32.079,616714.973,-0.00013,0.00013,0.0004,7,4.8,0.6
32.101,616714.993,0.00093,0.0012,0.0004,7,4.8,0.6
32.117,616715.014,-0.00013,0.00013,0.0004,7,4.8,0.6
32.141,616715.034,-0.00013,0.00013,0.0004,7,4.8,0.6
32.16,616715.054,-0.00013,0.00013,0.0004,7,4.8,0.6
32.181,616715.074,-0.00013,0.0012,0.0004,7,4.8,0.6
32.199,616715.094,-0.00013,0.00013,0.0004,7,4.8,0.6
32.221,616715.114,-0.00013,0.00013,0.0004,7,4.8,0.6
32.241,616715.134,-0.00013,0.00013,-0.00067,7,4.8,0.6
32.261,616715.154,-0.00013,-0.00093,-0.00067,7,4.8,0.6
32.283,616715.175,-0.00013,0.00013,0.0004,7,4.8,0.6
32.302,616715.195,-0.00013,0.00013,0.0004,7,4.8,0.6
32.322,616715.215,0.00093,0.00013,-0.00067,7,4.8,0.6
32.343,616715.235,-0.0012,-0.00093,-0.00067,7,4.8,0.6
32.362,616715.255,-0.00013,0.0012,0.0004,7,4.8,0.6
32.384,616715.275,-0.00013,0.00013,-0.00067,7,4.8,0.6
32.401,616715.295,-0.0012,0.00013,0.0004,7,4.8,0.6
32.421,616715.315,-0.00013,0.00013,-0.00067,7,4.8,0.6
32.442,616715.336,-0.00013,0.00013,-0.00067,7,4.8,0.6
32.464,616715.356,-0.00013,0.00013,0.0004,7,4.8,0.6
32.482,616715.376,-0.00013,0.0012,0.0004,7,4.8,0.6
32.501,616715.396,-0.00013,0.00013,-0.00067,7,4.8,0.6
32.524,616715.416,-0.0012,0.0012,0.0004,7,4.8,0.6
32.543,616715.436,-0.0012,0.00013,0.0004,7,4.8,0.6
32.568,616715.456,-0.0012,0.0012,0.0004,7,4.8,0.6
32.585,616715.476,-0.00013,0.00013,0.0004,7,4.8,0.6
32.606,616715.497,-0.00013,-0.00093,0.0004,7,4.8,0.6
32.624,616715.517,-0.00013,0.0012,-0.00067,7,4.8,0.6
32.646,616715.537,-0.00013,-0.00093,0.0004,7,4.8,0.6
32.664,616715.557,-0.0012,0.00013,0.0004,7,4.8,0.6
32.685,616715.577,-0.00013,-0.00093,0.0004,7,4.8,0.6
32.703,616715.597,-0.00013,0.0012,-0.00067,7,4.8,0.6
32.725,616715.617,0.00093,-0.00093,0.0004,7,4.8,0.6
32.747,616715.637,0.00093,0.00013,0.0004,7,4.8,0.6
32.766,616715.657,-0.00013,0.0012,-0.00067,7,4.8,0.6
32.784,616715.678,-0.0012,-0.00093,0.0004,7,4.8,0.6
32.803,616715.698,-0.00013,0.00013,-0.00067,7,4.8,0.6
32.828,616715.718,-0.00013,0.00013,0.0004,7,4.8,0.6
32.843,616715.738,0.00093,0.00013,0.0004,7,4.8,0.6
32.864,616715.758,0.00093,0.00013,-0.00067,7,4.8,0.6
32.883,616715.778,-0.00013,0.00013,0.0004,7,4.8,0.6
32.905,616715.798,-0.00013,0.00013,-0.00067,7,4.8,0.6
32.924,616715.818,-0.0012,0.00013,0.0004,7,4.8,0.6
32.946,616715.839,-0.00013,0.00013,0.0004,7,4.8,0.6
32.966,616715.859,0.00093,0.0012,-0.00067,7,4.8,0.6
32.985,616715.879,0.00093,0.00013,-0.00067,7,4.8,0.6
33.008,616715.899,-0.00013,-0.00093,0.0004,7,4.8,0.6
33.024,616715.919,-0.00013,0.00013,0.0004,7,4.8,0.6
33.046,616715.939,-0.0012,0.0012,0.0004,7,4.8,0.6
33.065,616715.959,-0.0012,0.00013,0.0004,7,4.8,0.6
33.089,616715.979,-0.00013,0.00013,0.0004,7,4.8,0.6
33.106,616716.0,-0.00013,0.0012,0.0004,7,4.8,0.6
33.125,616716.02,-0.00013,0.00013,0.0004,7,4.8,0.6
33.148,616716.04,-0.00013,0.00013,0.0004,7,4.8,0.6
33.166,616716.06,-0.00013,0.00013,0.0004,7,4.8,0.6
33.188,616716.08,-0.00013,0.00013,0.0004,7,4.8,0.6
33.208,616716.1,-0.00013,0.00013,-0.00067,7,4.8,0.6
33.226,616716.12,-0.00013,0.00013,0.0004,7,4.8,0.6
33.246,616716.14,-0.0012,0.00013,-0.00067,7,4.8,0.6
33.268,616716.161,-0.00013,0.00013,-0.00067,7,4.8,0.6
33.289,616716.181,-0.00013,0.00013,0.0004,7,4.8,0.6
33.307,616716.201,-0.00013,0.00013,-0.00067,7,4.8,0.6
33.327,616716.221,-0.00013,0.00013,0.0004,7,4.8,0.6
33.354,616716.241,0.00093,0.00013,0.0004,7,4.8,0.6
33.368,616716.261,-0.00013,0.00013,-0.00067,7,4.8,0.6
33.387,616716.281,-0.00013,0.0012,0.0004,7,4.8,0.6
33.407,616716.301,-0.0012,-0.00093,-0.00067,7,4.8,0.6
33.429,616716.322,-0.00013,0.00013,-0.00067,7,4.8,0.6
33.448,616716.342,-0.00013,0.0012,0.0004,7,4.8,0.6
33.503,616716.362,-0.00013,0.00013,0.0004,7,4.8,0.6
33.506,616716.382,-0.00013,0.00013,0.0004,7,4.8,0.6
33.51,616716.402,-0.00013,0.00013,0.0004,7,4.8,0.6
33.528,616716.422,-0.00013,0.00013,0.0004,7,4.8,0.6
33.547,616716.442,-0.00013,0.00013,-0.00067,7,4.8,0.6
33.568,616716.462,-0.00013,-0.00093,-0.00067,7,4.8,0.6
33.589,616716.482,0.00093,0.00226,0.0004,7,4.8,0.6
33.607,616716.503,-0.00013,-0.002,-0.00067,7,4.8,0.6
33.628,616716.523,-0.00013,0.0012,-0.00067,7,4.8,0.6
33.649,616716.543,-0.00013,0.00013,0.0004,7,4.8,0.6
33.671,616716.563,-0.00013,-0.00093,-0.00067,7,4.8,0.6
33.69,616716.583,-0.00013,0.00013,-0.00067,7,4.8,0.6
33.711,616716.603,-0.00013,-0.00093,0.0004,7,4.8,0.6
33.732,616716.623,-0.00013,0.0012,0.0004,7,4.8,0.6
33.75,616716.643,-0.00013,-0.00093,-0.00067,7,4.8,0.6
33.77,616716.664,-0.00013,0.0012,-0.00067,7,4.8,0.6
33.791,616716.684,-0.00013,-0.00093,0.0004,7,4.8,0.6
33.81,616716.704,0.00093,0.0012,0.0004,7,4.8,0.6
33.83,616716.724,-0.00013,0.00013,-0.00067,7,4.8,0.6
33.852,616716.744,-0.00013,0.00013,0.0004,7,4.8,0.6
33.87,616716.764,-0.00013,0.00013,-0.00067,7,4.8,0.6
33.893,616716.784,-0.00013,0.00013,-0.00067,7,4.8,0.6
33.911,616716.804,-0.00013,0.0012,-0.00067,7,4.8,0.6
33.932,616716.825,-0.00013,0.00013,-0.00067,7,4.8,0.6
33.953,616716.845,-0.00013,0.00013,0.0004,7,4.8,0.6
33.97,616716.865,-0.00013,0.00013,-0.00067,7,4.8,0.6
33.99,616716.885,-0.0012,0.00013,-0.00067,7,4.8,0.6
34.01,616716.905,-0.0012,0.00013,0.0004,7,4.8,0.6
34.03,616716.925,-0.00013,0.00013,-0.00067,7,4.8,0.6
34.052,616716.945,-0.00013,0.00013,0.0004,7,4.8,0.6
34.072,616716.965,-0.00013,-0.00093,-0.00067,7,4.8,0.6
34.092,616716.986,-0.00013,0.00013,-0.00067,7,4.8,0.6
34.111,616717.006,-0.00013,0.00013,-0.00067,7,4.8,0.6
34.135,616717.026,-0.00013,0.00013,0.0004,7,4.8,0.6
34.151,616717.046,-0.00013,0.00013,-0.00067,7,4.8,0.6
34.172,616717.066,-0.00013,0.0012,0.0004,7,4.8,0.6
34.194,616717.086,-0.00013,0.00013,0.0004,7,4.8,0.6
34.215,616717.106,-0.00013,0.00013,0.0004,7,4.8,0.6
34.234,616717.126,-0.00013,0.0012,0.0004,7,4.8,0.6
34.254,616717.147,-0.00013,0.00013,-0.00067,7,4.8,0.6
34.275,616717.167,-0.00013,0.00013,0.0004,7,4.8,0.6
34.293,616717.187,-0.0012,0.00013,0.0004,7,4.8,0.6
34.316,616717.207,-0.00013,0.00013,-0.00067,7,4.8,0.6
34.336,616717.227,-0.00013,0.00013,-0.00067,7,4.8,0.6
34.359,616717.247,-0.00013,-0.00093,-0.00067,7,4.8,0.6
34.372,616717.267,-0.00013,0.00013,0.0004,7,4.8,0.6
34.393,616717.287,-0.00013,-0.00093,0.0004,7,4.8,0.6
34.414,616717.307,-0.0012,0.00013,-0.00067,7,4.8,0.6
34.433,616717.328,-0.00013,0.00013,0.0004,7,4.8,0.6
34.456,616717.348,-0.00013,0.00013,-0.00067,7,4.8,0.6
34.476,616717.368,-0.00013,0.00013,-0.00067,7,4.8,0.6
34.494,616717.388,-0.00013,0.00013,-0.00067,7,4.8,0.6
34.516,616717.408,-0.00013,0.00013,0.0004,7,4.8,0.6
34.534,616717.428,-0.00013,0.00013,0.0004,7,4.8,0.6
34.555,616717.448,-0.00013,0.00013,0.0004,7,4.8,0.6
34.575,616717.468,-0.00013,0.0012,0.0004,7,4.8,0.6
34.596,616717.489,-0.00013,-0.00093,0.0004,7,4.8,0.6
34.615,616717.509,-0.00013,0.00013,0.0004,7,4.8,0.6
34.636,616717.529,-0.00013,0.00013,-0.00067,7,4.8,0.6
34.656,616717.549,-0.00013,0.00013,-0.00067,7,4.8,0.6
34.675,616717.569,-0.00013,0.00013,-0.00067,7,4.8,0.6
34.697,616717.589,-0.0012,0.00013,0.0004,7,4.8,0.6
34.715,616717.609,-0.00013,0.0012,-0.00067,7,4.8,0.6
34.736,616717.629,-0.0012,0.00013,0.0004,7,4.8,0.6
34.756,616717.65,-0.0012,0.00013,0.0004,7,4.8,0.6
34.774,616717.67,-0.00013,0.0012,0.0004,7,4.8,0.6
34.797,616717.69,-0.00013,0.0012,0.0004,7,4.8,0.6
34.815,616717.71,-0.00013,0.00013,0.0004,7,4.8,0.6
34.837,616717.73,-0.00013,0.00013,0.0004,7,4.8,0.6
34.856,616717.75,0.00093,0.00013,0.0004,7,4.8,0.6
34.877,616717.77,0.00093,0.00013,-0.00067,7,4.8,0.6
34.897,616717.79,-0.00013,0.00013,0.0004,7,4.8,0.6
34.92,616717.811,-0.00013,0.00013,0.0004,7,4.8,0.6
34.94,616717.831,-0.0012,0.00013,-0.00067,7,4.8,0.6
34.959,616717.851,-0.00013,0.00013,0.0004,7,4.8,0.6
34.978,616717.871,-0.00013,0.0012,-0.00067,7,4.8,0.6
34.999,616717.891,-0.00013,-0.00093,0.0004,7,4.8,0.6
35.016,616717.911,0.00093,0.00013,0.0004,7,4.8,0.6
35.041,616717.931,-0.00013,-0.00093,0.0004,7,4.8,0.6
35.059,616717.951,-0.00013,0.00013,-0.00067,7,4.8,0.6
35.079,616717.971,-0.0012,-0.00093,0.0004,7,4.8,0.6
35.102,616717.992,-0.00013,0.00013,0.0004,7,4.8,0.6
35.12,616718.012,-0.00013,0.00013,0.0004,7,4.8,0.6
35.141,616718.032,-0.00013,-0.00093,-0.00067,7,4.8,0.6
35.156,616718.052,-0.00013,0.00013,0.0004,7,4.8,0.6
35.177,616718.072,-0.00013,0.00013,-0.00067,7,4.8,0.6
35.198,616718.092,-0.00013,-0.00093,0.0004,7,4.8,0.6
35.218,616718.112,-0.00013,0.00013,-0.00067,7,4.8,0.6
35.242,616718.132,-0.00013,0.00013,-0.00067,7,4.8,0.6
35.258,616718.153,-0.00013,-0.00093,0.0004,7,4.8,0.6
35.28,616718.173,-0.00013,0.00013,-0.00067,7,4.8,0.6
35.299,616718.193,-0.00013,0.00013,-0.00067,7,4.8,0.6
35.32,616718.213,-0.00013,0.00013,-0.00067,7,4.8,0.6
35.339,616718.233,-0.00013,-0.00093,0.0004,7,4.8,0.6
35.368,616718.253,-0.00013,0.0012,0.0004,7,4.8,0.6
35.379,616718.273,-0.00013,0.00013,0.0004,7,4.8,0.6
35.399,616718.293,-0.00013,0.00013,-0.00067,7,4.8,0.6
35.418,616718.314,-0.00013,0.00013,0.0004,7,4.8,0.6
35.441,616718.334,-0.00013,0.0012,-0.00067,7,4.8,0.6
35.46,616718.354,-0.00013,0.00013,0.0004,7,4.8,0.6
35.483,616718.374,-0.00013,0.00013,0.0004,7,4.8,0.6
35.5,616718.394,-0.00013,0.00013,-0.00067,7,4.8,0.6
35.52,616718.414,-0.00013,0.00013,0.0004,7,4.8,0.6
35.54,616718.434,-0.00013,0.00013,0.0004,7,4.8,0.6
35.56,616718.454,-0.00013,0.00013,-0.00067,7,4.8,0.6
35.581,616718.475,-0.00013,0.00013,0.0004,7,4.8,0.6
35.601,616718.495,-0.00013,0.00013,0.0004,7,4.8,0.6
35.625,616718.515,-0.00013,0.00013,-0.00067,7,4.8,0.6
35.641,616718.535,-0.00013,0.00013,0.0004,7,4.8,0.6
35.66,616718.555,-0.00013,0.00013,0.0004,7,4.8,0.6
35.684,616718.575,-0.00013,0.00013,0.0004,7,4.8,0.6
35.705,616718.595,-0.00013,0.00013,0.0004,7,4.8,0.6
35.725,616718.615,-0.00013,0.00013,-0.00067,7,4.8,0.6
35.744,616718.636,-0.00013,0.00013,-0.00067,7,4.8,0.6
35.765,616718.656,-0.00013,0.00013,0.0004,7,4.8,0.6
35.787,616718.676,-0.00013,0.00013,-0.00067,7,4.8,0.6
35.804,616718.696,-0.00013,0.00013,-0.00067,7,4.8,0.6
35.824,616718.716,-0.00013,0.00013,-0.00067,7,4.8,0.6
35.846,616718.736,-0.00013,0.00013,0.0004,7,4.8,0.6
35.864,616718.756,-0.00013,-0.00093,0.0004,7,4.8,0.6
35.884,616718.776,-0.00013,0.00013,0.0004,7,4.8,0.6
35.903,616718.796,-0.00013,0.00013,-0.00067,7,4.8,0.6
35.925,616718.817,-0.00013,0.00013,0.0004,7,4.8,0.6
35.947,616718.837,-0.00013,0.00013,0.0004,7,4.8,0.6
35.966,616718.857,-0.00013,0.00013,0.0004,7,4.8,0.6
35.985,616718.877,-0.00013,0.0012,0.0004,7,4.8,0.6
36.006,616718.897,-0.00013,0.00013,0.0004,7,4.8,0.6
36.026,616718.917,-0.00013,0.00013,-0.00067,7,4.8,0.6
36.045,616718.937,-0.00013,0.00013,0.0004,7,4.8,0.6
36.063,616718.957,-0.00013,0.00013,-0.00067,7,4.8,0.6
36.085,616718.978,-0.00013,0.00013,0.0004,7,4.8,0.6
36.102,616718.998,-0.00013,0.0012,0.0004,7,4.8,0.6
36.126,616719.018,-0.00013,0.00013,0.0004,7,4.8,0.6
36.143,616719.038,-0.0012,0.00013,0.0004,7,4.8,0.6
36.163,616719.058,-0.00013,0.00013,0.0004,7,4.8,0.6
36.184,616719.078,-0.00013,0.00013,-0.00067,7,4.8,0.6
36.203,616719.098,-0.00013,-0.00093,0.0004,7,4.8,0.6
36.224,616719.118,-0.00013,0.0012,0.0004,7,4.8,0.6
36.245,616719.139,-0.00013,0.00013,-0.00067,7,4.8,0.6
36.265,616719.159,-0.00013,0.00013,-0.00067,7,4.8,0.6
36.285,616719.179,-0.00013,0.00013,0.0004,7,4.8,0.6
36.304,616719.199,-0.00013,0.0012,-0.00067,7,4.8,0.6
36.325,616719.219,-0.0012,0.00013,0.0004,7,4.8,0.6
36.35,616719.239,-0.0012,0.00013,0.0004,7,4.8,0.6
36.365,616719.259,-0.00013,0.0012,-0.00067,7,4.8,0.6
36.386,616719.279,-0.00013,0.00013,-0.00067,7,4.8,0.6
36.405,616719.3,-0.00013,0.00013,0.0004,7,4.8,0.6
36.426,616719.32,-0.00013,0.00013,0.0004,7,4.8,0.6
36.446,616719.34,-0.00013,0.0012,0.0004,7,4.8,0.6
36.466,616719.36,-0.00013,-0.00093,-0.00067,7,4.8,0.6
36.485,616719.38,-0.00013,0.00013,-0.00067,7,4.8,0.6
36.507,616719.4,-0.00013,0.0012,0.0004,7,4.8,0.6
36.526,616719.42,-0.00013,0.00013,-0.00067,7,4.8,0.6
36.547,616719.44,-0.00013,0.0012,0.0004,7,4.8,0.6
36.566,616719.461,-0.00013,0.00013,0.0004,7,4.8,0.6
36.588,616719.481,0.00093,0.0012,0.0004,7,4.8,0.6
36.607,616719.501,-0.00013,0.00013,0.0004,7,4.8,0.6
36.628,616719.521,-0.00013,0.00013,-0.00067,7,4.8,0.6
36.646,616719.541,-0.00013,0.0012,-0.00067,7,4.8,0.6
36.667,616719.561,-0.00013,0.00013,0.0004,7,4.8,0.6
36.688,616719.581,-0.00013,0.00013,0.0004,7,4.8,0.6
36.708,616719.601,-0.00013,0.0012,-0.00067,7,4.8,0.6
36.729,616719.621,-0.00013,0.00013,-0.00067,7,4.8,0.6
36.748,616719.642,-0.00013,0.00013,0.0004,7,4.8,0.6
36.769,616719.662,-0.00013,0.0012,0.0004,7,4.8,0.6
36.787,616719.682,-0.00013,0.00013,0.0004,7,4.8,0.6
36.808,616719.702,-0.00013,0.00013,0.0004,7,4.8,0.6
36.828,616719.722,-0.00013,0.0012,0.0004,7,4.8,0.6
36.85,616719.742,-0.00013,0.00013,-0.00067,7,4.8,0.6
36.868,616719.762,-0.00013,-0.00093,0.0004,7,4.8,0.6
36.888,616719.782,-0.0012,0.00013,-0.00067,7,4.8,0.6
36.91,616719.803,-0.00013,0.00013,0.0004,7,4.8,0.6
36.929,616719.823,-0.00013,0.00013,0.0004,7,4.8,0.6
36.95,616719.843,-0.00013,-0.00093,0.0004,7,4.8,0.6
36.97,616719.863,-0.00013,0.0012,0.0004,7,4.8,0.6
36.99,616719.883,-0.00013,0.00013,0.0004,7,4.8,0.6
37.011,616719.903,-0.00013,0.00013,0.0004,7,4.8,0.6
37.03,616719.923,-0.00013,0.00013,0.0004,7,4.8,0.6
37.05,616719.943,-0.0012,0.00013,-0.00067,7,4.8,0.6
37.072,616719.964,-0.00013,0.00013,-0.00067,7,4.8,0.6
37.09,616719.984,-0.00013,0.00013,0.0004,7,4.8,0.6
37.117,616720.004,-0.00013,0.0012,0.0004,7,4.8,0.6
37.13,616720.024,0.00093,-0.00093,-0.00067,7,4.8,0.6
37.152,616720.044,-0.00013,0.00013,-0.00067,7,4.8,0.6
37.169,616720.064,-0.00013,0.00013,0.0004,7,4.8,0.6
37.189,616720.084,-0.00013,0.00013,-0.00067,7,4.8,0.6
37.212,616720.104,-0.00013,0.00013,0.0004,7,4.8,0.6
37.23,616720.125,-0.00013,0.00013,0.0004,7,4.8,0.6
37.254,616720.145,-0.00013,0.00013,-0.00067,7,4.8,0.6
37.271,616720.165,-0.00013,0.00013,0.0004,7,4.8,0.6
37.294,616720.185,-0.00013,0.00013,-0.00067,7,4.8,0.6
37.311,616720.205,-0.00013,0.00013,0.0004,7,4.8,0.6
37.332,616720.225,-0.00013,-0.00093,0.0004,7,4.8,0.6
37.358,616720.245,-0.00013,0.0012,-0.00067,7,4.8,0.6
37.373,616720.265,-0.00013,0.00013,0.0004,7,4.8,0.6
37.393,616720.285,-0.00013,0.0012,0.0004,7,4.8,0.6
37.413,616720.306,-0.00013,0.00013,0.0004,7,4.8,0.6
37.432,616720.326,-0.00013,0.0012,-0.00067,7,4.8,0.6
37.457,616720.346,-0.00013,0.00013,-0.00067,7,4.8,0.6
37.476,616720.366,-0.00013,0.00013,-0.00067,7,4.8,0.6
37.491,616720.386,-0.00013,0.00013,0.0004,7,4.8,0.6
37.512,616720.406,-0.00013,0.0012,0.0004,7,4.8,0.6
37.533,616720.426,-0.00013,0.00013,-0.00067,7,4.8,0.6
37.551,616720.446,-0.00013,0.0012,0.0004,7,4.8,0.6
37.574,616720.467,0.00093,0.00013,-0.00067,7,4.8,0.6
37.596,616720.487,-0.00013,0.00013,0.0004,7,4.8,0.6
37.614,616720.507,-0.00013,-0.00093,-0.00067,7,4.8,0.6
37.633,616720.527,-0.0012,0.0012,0.0004,7,4.8,0.6
37.653,616720.547,-0.00013,0.00013,-0.00067,7,4.8,0.6
37.674,616720.567,-0.00013,0.00013,0.0004,7,4.8,0.6
37.693,616720.587,-0.00013,0.00013,-0.00067,7,4.8,0.6
37.715,616720.607,-0.0012,0.00013,-0.00067,7,4.8,0.6
37.733,616720.628,-0.00013,0.00013,0.0004,7,4.8,0.6
37.755,616720.648,-0.00013,0.00013,-0.00067,7,4.8,0.6
37.775,616720.668,-0.00013,0.0012,0.0004,7,4.8,0.6
37.797,616720.688,-0.00013,0.0012,0.0004,7,4.8,0.6
37.817,616720.708,-0.00013,0.00013,-0.00067,7,4.8,0.6
37.836,616720.728,-0.00013,0.0012,0.0004,7,4.8,0.6
37.855,616720.748,-0.00013,0.0012,-0.00067,7,4.8,0.6
37.877,616720.768,0.00093,0.00013,-0.00067,7,4.8,0.6
37.896,616720.789,-0.00013,0.00013,0.0004,7,4.8,0.6
37.918,616720.809,-0.00013,0.00013,0.0004,7,4.8,0.6
37.938,616720.829,-0.00013,0.00013,0.0004,7,4.8,0.6
37.958,616720.849,-0.00013,0.00013,-0.00067,7,4.8,0.6
37.975,616720.869,-0.0012,0.00013,0.0004,7,4.8,0.6
37.997,616720.889,-0.00013,0.00013,0.0004,7,4.8,0.6
38.015,616720.909,-0.00013,0.00013,-0.00067,7,4.8,0.6
38.036,616720.929,-0.00013,0.00013,0.0004,7,4.8,0.6
38.057,616720.95,-0.00013,0.0012,0.0004,7,4.8,0.6
38.078,616720.97,-0.00013,0.00013,0.0004,7,4.8,0.6
38.097,616720.99,-0.00013,0.00013,-0.00067,7,4.8,0.6
38.118,616721.01,-0.00013,0.0012,0.0004,7,4.8,0.6
38.134,616721.03,-0.00013,0.00013,0.0004,7,4.8,0.6
38.157,616721.05,-0.0012,0.00013,0.0004,7,4.8,0.6
38.175,616721.07,-0.00013,0.0012,0.0004,7,4.8,0.6
38.195,616721.09,-0.00013,0.00013,0.0004,7,4.8,0.6
38.216,616721.11,-0.00013,0.00013,0.0004,7,4.8,0.6
38.236,616721.131,-0.00013,0.00013,0.0004,7,4.8,0.6
38.26,616721.151,-0.00013,-0.00093,0.0004,7,4.8,0.6
38.278,616721.171,-0.00013,0.00013,-0.00067,7,4.8,0.6
38.297,616721.191,-0.00013,0.00013,-0.00067,7,4.8,0.6
38.318,616721.211,0.00093,0.00013,-0.00067,7,4.8,0.6
38.34,616721.231,-0.00013,0.00013,0.0004,7,4.8,0.6
38.36,616721.251,-0.00013,-0.00093,-0.00067,7,4.8,0.6
38.376,616721.271,-0.00013,0.0012,0.0004,7,4.8,0.6
38.397,616721.292,-0.00013,0.00013,0.0004,7,4.8,0.6
38.42,616721.312,-0.00013,0.00013,-0.00067,7,4.8,0.6
38.437,616721.332,-0.00013,0.00013,-0.00067,7,4.8,0.6
38.46,616721.352,-0.00013,0.00013,-0.00067,7,4.8,0.6
38.479,616721.372,-0.00013,-0.00093,0.0004,7,4.8,0.6
38.5,616721.392,-0.00013,0.00013,0.0004,7,4.8,0.6
38.52,616721.412,-0.00013,0.00013,0.0004,7,4.8,0.6
38.539,616721.432,-0.00013,0.00013,-0.00067,7,4.8,0.6
38.558,616721.453,-0.00013,0.00013,0.0004,7,4.8,0.6
38.579,616721.473,-0.00013,0.0012,-0.00067,7,4.8,0.6
38.601,616721.493,-0.00013,0.00013,0.0004,7,4.8,0.6
38.622,616721.513,-0.00013,0.00013,0.0004,7,4.8,0.6
38.641,616721.533,-0.00013,0.00013,0.0004,7,4.8,0.6
38.663,616721.553,-0.00013,0.0012,0.0004,7,4.8,0.6
38.682,616721.573,-0.00013,0.00013,0.0004,7,4.8,0.6
38.701,616721.593,-0.0012,-0.00093,-0.00067,7,4.8,0.6
38.724,616721.614,-0.00013,0.0012,0.0004,7,4.8,0.6
38.74,616721.634,-0.00013,-0.00093,0.0004,7,4.8,0.6
38.762,616721.654,-0.00013,0.00013,-0.00067,7,4.8,0.6
38.779,616721.674,-0.00013,0.00013,0.0004,7,4.8,0.6
38.8,616721.694,-0.00013,0.0012,-0.00067,7,4.8,0.6
38.821,616721.714,-0.0012,0.00013,-0.00067,7,4.8,0.6
38.84,616721.734,-0.00013,0.0012,0.0004,7,4.8,0.6
38.862,616721.754,-0.00013,0.00013,0.0004,7,4.8,0.6
38.884,616721.775,-0.00013,0.00013,-0.00067,7,4.8,0.6
38.901,616721.795,-0.0012,0.00013,0.0004,7,4.8,0.6
38.922,616721.815,-0.00013,0.00013,-0.00067,7,4.8,0.6
38.945,616721.835,-0.00013,0.00013,0.0004,7,4.8,0.6
38.962,616721.855,-0.00013,0.00013,-0.00067,7,4.8,0.6
38.983,616721.875,-0.00013,0.00013,-0.00067,7,4.8,0.6
39.002,616721.895,-0.00013,0.00013,0.0004,7,4.8,0.6
39.025,616721.915,-0.00013,0.00013,-0.00067,7,4.8,0.6
39.045,616721.935,-0.00013,0.00013,-0.00067,7,4.8,0.6
39.062,616721.956,-0.00013,0.0012,0.0004,7,4.8,0.6
39.081,616721.976,-0.0012,0.00013,0.0004,7,4.8,0.6
39.102,616721.996,-0.00013,0.00013,0.0004,7,4.8,0.6
39.126,616722.016,-0.00013,0.00013,-0.00067,7,4.8,0.6
39.142,616722.036,-0.00013,0.00013,0.0004,7,4.8,0.6
39.162,616722.056,-0.00013,0.00013,0.0004,7,4.8,0.6
39.185,616722.076,-0.00013,0.0012,0.0004,7,4.8,0.6
39.205,616722.096,-0.00013,0.00013,-0.00067,7,4.8,0.6
39.225,616722.117,-0.00013,0.00013,-0.00067,7,4.8,0.6
39.244,616722.137,-0.00013,0.00013,0.0004,7,4.8,0.6
39.265,616722.157,-0.00013,0.0012,0.0004,7,4.8,0.6
39.287,616722.177,-0.00013,0.00013,0.0004,7,4.8,0.6
39.303,616722.197,-0.00013,0.00013,0.0004,7,4.8,0.6
39.324,616722.217,-0.0012,0.0012,-0.00067,7,4.8,0.6
39.343,616722.237,-0.00013,0.00013,0.0004,7,4.8,0.6
39.367,616722.257,-0.00013,0.00013,-0.00067,7,4.8,0.6
39.385,616722.278,-0.00013,0.00013,0.0004,7,4.8,0.6
39.404,616722.298,-0.00013,0.00013,0.0004,7,4.8,0.6
39.425,616722.318,-0.00013,-0.00093,0.0004,7,4.8,0.6
39.447,616722.338,-0.00013,0.0012,-0.00067,7,4.8,0.6
39.495,616722.358,-0.00013,0.00013,0.0004,7,4.8,0.6
39.497,616722.378,-0.0012,0.00013,-0.00067,7,4.8,0.6
39.506,616722.398,-0.00013,-0.00093,0.0004,7,4.8,0.6
39.524,616722.418,-0.00013,0.00013,0.0004,7,4.8,0.6
39.545,616722.439,-0.00013,-0.00093,-0.00067,7,4.8,0.6
39.563,616722.459,-0.00013,-0.00093,0.0004,7,4.8,0.6
39.585,616722.479,0.00093,0.0012,0.0004,7,4.8,0.6
39.606,616722.499,-0.00013,0.0012,-0.00067,7,4.8,0.6
39.626,616722.519,-0.00013,-0.00093,0.0004,7,4.8,0.6
39.646,616722.539,-0.00013,0.0012,0.0004,7,4.8,0.6
39.665,616722.559,-0.00013,0.00013,-0.00067,7,4.8,0.6
39.687,616722.579,-0.00013,0.00013,-0.00067,7,4.8,0.6
39.705,616722.599,-0.00013,0.00013,0.0004,7,4.8,0.6
39.726,616722.62,-0.00013,0.00013,-0.00067,7,4.8,0.6
39.745,616722.64,-0.00013,0.00013,0.0004,7,4.8,0.6
39.767,616722.66,-0.00013,-0.00093,-0.00067,7,4.8,0.6
39.786,616722.68,-0.00013,0.00013,-0.00067,7,4.8,0.6
39.809,616722.7,-0.00013,0.00013,0.0004,7,4.8,0.6
39.826,616722.72,-0.00013,0.00013,-0.00067,7,4.8,0.6
39.846,616722.74,-0.00013,0.00013,-0.00067,7,4.8,0.6
39.866,616722.76,-0.00013,0.00013,0.0004,7,4.8,0.6
39.887,616722.781,-0.00013,0.00013,0.0004,7,4.8,0.6
39.907,616722.801,-0.00013,0.0012,0.0004,7,4.8,0.6
39.928,616722.821,-0.00013,0.00013,-0.00067,7,4.8,0.6
39.947,616722.841,-0.00013,0.00013,0.0004,7,4.8,0.6
39.968,616722.861,-0.0012,0.00013,0.0004,7,4.8,0.6
39.987,616722.881,-0.0012,0.0012,-0.00067,7,4.8,0.6
40.007,616722.901,-0.00013,0.00013,-0.00067,7,4.8,0.6
40.027,616722.921,-0.0012,0.00013,0.0004,7,4.8,0.6
40.05,616722.942,-0.00013,0.0012,-0.00067,7,4.8,0.6
40.069,616722.962,-0.00013,0.00013,-0.00067,7,4.8,0.6
40.088,616722.982,-0.00013,0.00013,0.0004,7,4.8,0.6
40.107,616723.002,0.00093,0.00013,0.0004,7,4.8,0.6
40.128,616723.022,-0.00013,0.00013,-0.00067,7,4.8,0.6
40.147,616723.042,-0.00013,-0.00093,0.0004,7,4.8,0.6
40.168,616723.062,-0.00013,0.00013,-0.00067,7,4.8,0.6
40.189,616723.082,-0.00013,0.0012,-0.00067,7,4.8,0.6
40.209,616723.103,-0.00013,0.00013,0.0004,7,4.8,0.6
40.23,616723.123,-0.00013,0.00013,-0.00067,7,4.8,0.6
40.252,616723.143,-0.00013,0.0012,0.0004,7,4.8,0.6
40.27,616723.163,-0.00013,0.00013,-0.00067,7,4.8,0.6
40.289,616723.183,-0.00013,0.00013,-0.00067,7,4.8,0.6
40.313,616723.203,-0.00013,0.00013,-0.00067,7,4.8,0.6
40.332,616723.223,-0.00013,0.00013,-0.00067,7,4.8,0.6
40.35,616723.243,-0.0012,0.00013,0.0004,7,4.8,0.6
40.374,616723.264,-0.00013,0.00013,0.0004,7,4.8,0.6
40.389,616723.284,-0.00013,0.00013,0.0004,7,4.8,0.6
40.411,616723.304,-0.00013,0.00013,0.0004,7,4.8,0.6
40.431,616723.324,-0.00013,-0.00093,0.0004,7,4.8,0.6
40.45,616723.344,-0.00013,0.00013,0.0004,7,4.8,0.6
40.472,616723.364,-0.00013,0.00013,0.0004,7,4.8,0.6
40.493,616723.384,-0.00013,-0.00093,-0.00067,7,4.8,0.6
40.51,616723.404,-0.00013,0.00013,0.0004,7,4.8,0.6
40.531,616723.424,-0.00013,0.0012,0.0004,7,4.8,0.6
40.55,616723.445,-0.00013,0.00013,-0.00067,7,4.8,0.6
40.571,616723.465,-0.00013,0.00013,-0.00067,7,4.8,0.6
40.592,616723.485,-0.00013,0.0012,0.0004,7,4.8,0.6
40.614,616723.505,-0.00013,-0.00093,0.0004,7,4.8,0.6
40.632,616723.525,-0.00013,-0.00093,0.0004,7,4.8,0.6
40.651,616723.545,-0.00013,0.00013,-0.00067,7,4.8,0.6
40.673,616723.565,-0.00013,0.00013,-0.00067,7,4.8,0.6
40.691,616723.585,-0.00013,0.00013,0.0004,7,4.8,0.6
40.713,616723.606,-0.00013,0.00013,0.0004,7,4.8,0.6
40.732,616723.626,-0.00013,0.0012,-0.00067,7,4.8,0.6
40.753,616723.646,-0.0012,-0.00093,0.0004,7,4.8,0.6
40.773,616723.666,-0.00013,0.0012,0.0004,7,4.8,0.6
40.792,616723.686,-0.00013,0.00013,-0.00067,7,4.8,0.6
40.812,616723.706,-0.00013,0.00013,-0.00067,7,4.8,0.6
40.832,616723.726,-0.00013,0.00013,-0.00067,7,4.8,0.6
40.855,616723.746,-0.00013,0.00013,0.0004,7,4.8,0.6
40.875,616723.767,-0.00013,0.00013,0.0004,7,4.8,0.6
40.896,616723.787,-0.00013,0.00013,0.0004,7,4.8,0.6
40.913,616723.807,-0.00013,0.0012,-0.00067,7,4.8,0.6
40.936,616723.827,-0.00013,0.00013,-0.00067,7,4.8,0.6
40.954,616723.847,-0.00013,0.00013,0.0004,7,4.8,0.6
40.976,616723.867,-0.00013,0.00013,0.0004,7,4.8,0.6
40.993,616723.887,-0.00013,0.00013,0.0004,7,4.8,0.6
41.014,616723.907,-0.0012,0.00013,0.0004,7,4.8,0.6
41.034,616723.928,-0.0012,0.00013,0.0004,7,4.8,0.6
41.057,616723.948,-0.00013,0.0012,0.0004,7,4.8,0.6
41.074,616723.968,-0.00013,0.00013,0.0004,7,4.8,0.6
41.096,616723.988,-0.00013,-0.00093,0.0004,7,4.8,0.6
41.116,616724.008,-0.0012,0.00013,0.0004,7,4.8,0.6
41.133,616724.028,-0.00013,0.0012,-0.00067,7,4.8,0.6
41.154,616724.048,-0.00013,0.00013,0.0004,7,4.8,0.6
41.176,616724.068,-0.00013,0.0012,0.0004,7,4.8,0.6
41.195,616724.089,-0.00013,0.00013,-0.00067,7,4.8,0.6
41.215,616724.109,-0.00013,0.00013,0.0004,7,4.8,0.6
41.235,616724.129,-0.00013,0.0012,0.0004,7,4.8,0.6
41.256,616724.149,-0.00013,0.00013,-0.00067,7,4.8,0.6
41.275,616724.169,-0.0012,0.00013,0.0004,7,4.8,0.6
41.296,616724.189,-0.00013,-0.00093,-0.00067,7,4.8,0.6
41.32,616724.209,-0.00013,0.00013,-0.00067,7,4.8,0.6
41.337,616724.229,-0.00013,0.0012,0.0004,7,4.8,0.6
41.36,616724.249,-0.00013,0.00013,0.0004,7,4.8,0.6
41.376,616724.27,-0.00013,0.00013,0.0004,7,4.8,0.6
41.394,616724.29,-0.00013,0.0012,-0.00067,7,4.8,0.6
41.417,616724.31,-0.00013,0.00013,-0.00067,7,4.8,0.6
41.44,616724.33,-0.00013,0.0012,0.0004,7,4.8,0.6
41.462,616724.35,-0.00013,0.00013,0.0004,7,4.8,0.6
41.504,616724.37,-0.0012,0.0012,0.0004,7,4.8,0.6
41.508,616724.39,0.00093,-0.00093,-0.00067,7,4.8,0.6
41.518,616724.41,-0.0012,0.00013,0.0004,7,4.8,0.6
41.535,616724.431,-0.00013,0.00013,0.0004,7,4.8,0.6
41.555,616724.451,-0.00013,-0.00093,-0.00067,7,4.8,0.6
41.576,616724.471,-0.00013,0.0012,0.0004,7,4.8,0.6
41.596,616724.491,-0.00013,-0.00093,-0.00067,7,4.8,0.6
41.617,616724.511,-0.00013,0.0012,-0.00067,7,4.8,0.6
41.638,616724.531,-0.00013,-0.00093,0.0004,7,4.8,0.6
41.66,616724.551,0.00093,0.0012,0.0004,7,4.8,0.6
41.68,616724.571,-0.00013,0.00013,-0.00067,7,4.8,0.6
41.698,616724.592,-0.00013,0.00013,-0.00067,7,4.8,0.6
41.721,616724.612,-0.00013,0.0012,0.0004,7,4.8,0.6
41.739,616724.632,-0.00013,0.0012,0.0004,7,4.8,0.6
41.762,616724.652,-0.00013,0.00013,-0.00067,7,4.8,0.6
41.778,616724.672,-0.00013,0.00013,0.0004,7,4.8,0.6
41.8,616724.692,-0.00013,0.00013,-0.00067,7,4.8,0.6
41.818,616724.712,-0.00013,0.0012,0.0004,7,4.8,0.6
41.842,616724.732,-0.0012,0.00013,0.0004,7,4.8,0.6
41.86,616724.753,-0.00013,0.00013,0.0004,7,4.8,0.6
41.881,616724.773,-0.0012,0.0012,0.0004,7,4.8,0.6
41.904,616724.793,0.00093,0.00013,-0.00067,7,4.8,0.6
41.919,616724.813,-0.00013,0.0012,0.0004,7,4.8,0.6
41.94,616724.833,-0.00013,0.00013,0.0004,7,4.8,0.6
41.958,616724.853,-0.00013,0.00013,0.0004,7,4.8,0.6
41.978,616724.873,-0.00013,0.00013,0.0004,7,4.8,0.6
41.999,616724.893,-0.00013,0.00013,0.0004,7,4.8,0.6
42.018,616724.913,-0.00013,0.00013,0.0004,7,4.8,0.6
42.04,616724.934,-0.0012,0.0012,0.0004,7,4.8,0.6
42.06,616724.954,-0.00013,0.00013,-0.00067,7,4.8,0.6
42.079,616724.974,-0.00013,0.0012,-0.00067,7,4.8,0.6
42.101,616724.994,-0.00013,-0.00093,0.0004,7,4.8,0.6
42.12,616725.014,-0.00013,0.00013,0.0004,7,4.8,0.6
42.139,616725.034,-0.00013,0.00013,-0.00067,7,4.8,0.6
42.162,616725.054,-0.00013,0.00013,-0.00067,7,4.8,0.6
42.18,616725.074,-0.00013,0.00013,-0.00067,7,4.8,0.6
42.201,616725.095,-0.0012,0.00013,0.0004,7,4.8,0.6
42.221,616725.115,-0.00013,0.00013,0.0004,7,4.8,0.6
42.245,616725.135,-0.00013,0.0012,0.0004,7,4.8,0.6
42.264,616725.155,0.00093,0.0012,0.0004,7,4.8,0.6
42.283,616725.175,-0.00013,0.00013,0.0004,7,4.8,0.6
42.304,616725.195,-0.00013,0.00013,-0.00067,7,4.8,0.6
42.322,616725.215,-0.00013,0.00013,0.0004,7,4.8,0.6
42.349,616725.235,-0.00013,0.0012,0.0004,7,4.8,0.6
42.363,616725.256,-0.0012,0.00013,0.0004,7,4.8,0.6
42.381,616725.276,-0.00013,0.00013,0.0004,7,4.8,0.6
42.404,616725.296,-0.00013,0.00013,0.0004,7,4.8,0.6
42.426,616725.316,-0.00013,0.00013,0.0004,7,4.8,0.6
42.443,616725.336,-0.00013,0.00013,-0.00067,7,4.8,0.6
42.464,616725.356,-0.0012,0.00013,-0.00067,7,4.8,0.6
42.482,616725.376,-0.00013,0.00013,0.0004,7,4.8,0.6
42.502,616725.396,-0.00013,-0.00093,-0.00067,7,4.8,0.6
42.527,616725.417,-0.00013,0.0012,-0.00067,7,4.8,0.6
42.542,616725.437,-0.00013,0.00013,0.0004,7,4.8,0.6
42.567,616725.457,-0.00013,0.00013,0.0004,7,4.8,0.6
42.584,616725.477,-0.00013,0.00013,0.0004,7,4.8,0.6
42.607,616725.497,-0.00013,0.00013,0.0004,7,4.8,0.6
42.625,616725.517,-0.00013,0.00013,0.0004,7,4.8,0.6
42.644,616725.537,-0.00013,0.00013,-0.00067,7,4.8,0.6
42.663,616725.557,-0.00013,0.00013,-0.00067,7,4.8,0.6
42.682,616725.578,-0.0012,0.00013,-0.00067,7,4.8,0.6
42.704,616725.598,-0.0012,0.00013,-0.00067,7,4.8,0.6
42.726,616725.618,-0.00013,0.0012,-0.00067,7,4.8,0.6
42.744,616725.638,-0.00013,0.00013,0.0004,7,4.8,0.6
42.764,616725.658,-0.00013,0.00013,-0.00067,7,4.8,0.6
42.785,616725.678,-0.00013,0.00013,-0.00067,7,4.8,0.6
42.805,616725.698,-0.00013,0.0012,-0.00067,7,4.8,0.6
42.824,616725.718,-0.00013,0.00013,0.0004,7,4.8,0.6
42.848,616725.738,-0.00013,0.00013,-0.00067,7,4.8,0.6
42.864,616725.759,-0.00013,0.00013,0.0004,7,4.8,0.6
42.884,616725.779,-0.00013,0.0012,-0.00067,7,4.8,0.6
42.905,616725.799,-0.00013,-0.00093,0.0004,7,4.8,0.6
42.924,616725.819,-0.00013,0.0012,0.0004,7,4.8,0.6
42.946,616725.839,-0.00013,0.00013,0.0004,7,4.8,0.6
42.967,616725.859,-0.00013,0.00013,0.0004,7,4.8,0.6
42.985,616725.879,-0.00013,0.00013,0.0004,7,4.8,0.6
43.004,616725.899,-0.00013,0.00013,0.0004,7,4.8,0.6
43.025,616725.92,-0.00013,0.00013,-0.00067,7,4.8,0.6
43.046,616725.94,-0.00013,0.00013,0.0004,7,4.8,0.6
43.066,616725.96,-0.00013,0.00013,0.0004,7,4.8,0.6
43.088,616725.98,-0.00013,0.00013,0.0004,7,4.8,0.6
43.106,616726.0,-0.00013,-0.00093,0.0004,7,4.8,0.6
43.128,616726.02,-0.00013,0.00013,-0.00067,7,4.8,0.6
43.145,616726.04,-0.00013,0.0012,-0.00067,7,4.8,0.6
43.166,616726.06,-0.00013,0.00013,-0.00067,7,4.8,0.6
43.185,616726.081,-0.0012,0.00013,0.0004,7,4.8,0.6
43.205,616726.101,-0.00013,0.00013,-0.00067,7,4.8,0.6
43.227,616726.121,-0.0012,-0.00093,0.0004,7,4.8,0.6
43.249,616726.141,-0.00013,0.00013,0.0004,7,4.8,0.6
43.268,616726.161,-0.00013,0.00013,-0.00067,7,4.8,0.6
43.287,616726.181,-0.0012,0.00013,-0.00067,7,4.8,0.6
43.309,616726.201,-0.00013,0.00013,0.0004,7,4.8,0.6
43.33,616726.221,-0.00013,0.00013,-0.00067,7,4.8,0.6
43.35,616726.242,-0.00013,0.0012,0.0004,7,4.8,0.6
43.369,616726.262,-0.00013,0.00013,-0.00067,7,4.8,0.6
43.388,616726.282,-0.0012,0.00013,0.0004,7,4.8,0.6
43.408,616726.302,-0.00013,0.00013,-0.00067,7,4.8,0.6
43.43,616726.322,-0.00013,0.00013,-0.00067,7,4.8,0.6
43.45,616726.342,-0.00013,0.00013,0.0004,7,4.8,0.6
43.494,616726.362,-0.00013,0.00013,0.0004,7,4.8,0.6
43.496,616726.382,-0.00013,0.0012,-0.00067,7,4.8,0.6
43.507,616726.402,-0.00013,-0.00093,-0.00067,7,4.8,0.6
43.527,616726.423,-0.00013,0.0012,0.0004,7,4.8,0.6
43.549,616726.443,-0.00013,0.00013,0.0004,7,4.8,0.6
43.569,616726.463,-0.0012,0.00013,-0.00067,7,4.8,0.6
43.591,616726.483,-0.00013,0.00013,-0.00067,7,4.8,0.6
43.61,616726.503,-0.00013,0.0012,0.0004,7,4.8,0.6
43.632,616726.523,-0.00013,0.00013,0.0004,7,4.8,0.6
43.651,616726.543,-0.0012,0.00013,-0.00067,7,4.8,0.6
43.669,616726.563,-0.0012,0.0012,0.0004,7,4.8,0.6
43.689,616726.584,-0.00013,0.0012,0.0004,7,4.8,0.6
43.711,616726.604,-0.00013,0.00013,0.0004,7,4.8,0.6
43.732,616726.624,-0.00013,0.00013,-0.00067,7,4.8,0.6
43.752,616726.644,-0.00013,0.00013,0.0004,7,4.8,0.6
43.772,616726.664,-0.00013,0.00013,-0.00067,7,4.8,0.6
43.791,616726.684,-0.0012,-0.00093,-0.00067,7,4.8,0.6
43.812,616726.704,-0.00013,0.0012,0.0004,7,4.8,0.6
43.831,616726.724,-0.00013,0.0012,0.0004,7,4.8,0.6
43.85,616726.745,-0.00013,0.00013,-0.00067,7,4.8,0.6
43.871,616726.765,-0.00013,0.00013,-0.00067,7,4.8,0.6
43.893,616726.785,-0.00013,0.0012,-0.00067,7,4.8,0.6
43.912,616726.805,-0.0012,0.00013,0.0004,7,4.8,0.6
43.932,616726.825,-0.0012,0.0012,0.0004,7,4.8,0.6
43.955,616726.845,-0.00013,0.0012,0.0004,7,4.8,0.6
43.971,616726.865,-0.00013,0.00013,0.0004,7,4.8,0.6
43.994,616726.885,-0.00013,0.00013,0.0004,7,4.8,0.6
44.013,616726.906,0.00093,0.00013,-0.00067,7,4.8,0.6
44.033,616726.926,-0.0012,0.00013,-0.00067,7,4.8,0.6
44.055,616726.946,-0.0012,0.00013,0.0004,7,4.8,0.6
44.074,616726.966,-0.00013,0.00013,-0.00067,7,4.8,0.6
44.099,616726.986,-0.00013,0.0012,-0.00067,7,4.8,0.6
44.118,616727.006,-0.0012,0.00013,0.0004,7,4.8,0.6
44.131,616727.026,-0.00013,0.00013,0.0004,7,4.8,0.6
44.151,616727.046,-0.00013,0.00013,0.0004,7,4.8,0.6
44.171,616727.067,-0.00013,0.00013,0.0004,7,4.8,0.6
44.192,616727.087,-0.0012,0.00013,0.0004,7,4.8,0.6
44.212,616727.107,-0.00013,0.00013,-0.00067,7,4.8,0.6
44.233,616727.127,-0.00013,0.0012,0.0004,7,4.8,0.6
44.255,616727.147,-0.0012,-0.00093,-0.00067,7,4.8,0.6
44.275,616727.167,-0.0012,0.0012,0.0004,7,4.8,0.6
44.296,616727.187,-0.00013,0.00013,0.0004,7,4.8,0.6
44.315,616727.207,-0.0012,0.00013,0.0004,7,4.8,0.6
44.333,616727.227,-0.00013,0.0012,0.0004,7,4.8,0.6
44.354,616727.248,-0.00013,0.0012,-0.00067,7,4.8,0.6
44.373,616727.268,-0.00013,0.00013,0.0004,7,4.8,0.6
44.393,616727.288,0.00093,-0.00093,-0.00067,7,4.8,0.6
44.416,616727.308,-0.00013,0.00013,0.0004,7,4.8,0.6
44.437,616727.328,-0.00013,0.00013,0.0004,7,4.8,0.6
44.453,616727.348,-0.00013,0.00013,0.0004,7,4.8,0.6
44.477,616727.368,-0.00013,0.00013,-0.00067,7,4.8,0.6
44.495,616727.388,-0.00013,0.0012,0.0004,7,4.8,0.6
44.516,616727.409,-0.00013,0.00013,-0.00067,7,4.8,0.6
44.537,616727.429,-0.00013,0.00013,0.0004,7,4.8,0.6
44.555,616727.449,-0.00013,0.0012,-0.00067,7,4.8,0.6
44.578,616727.469,-0.00013,0.00013,0.0004,7,4.8,0.6
44.598,616727.489,-0.00013,0.00013,-0.00067,7,4.8,0.6
44.615,616727.509,-0.00013,0.00013,0.0004,7,4.8,0.6
44.638,616727.529,-0.00013,0.00013,0.0004,7,4.8,0.6
44.657,616727.549,-0.00013,-0.00093,-0.00067,7,4.8,0.6
44.678,616727.57,-0.00013,0.0012,0.0004,7,4.8,0.6
44.698,616727.59,-0.00013,0.00013,0.0004,7,4.8,0.6
44.718,616727.61,-0.00013,-0.00093,0.0004,7,4.8,0.6
44.738,616727.63,-0.0012,0.00013,0.0004,7,4.8,0.6
44.758,616727.65,-0.00013,0.00013,-0.00067,7,4.8,0.6
44.776,616727.67,-0.0012,0.0012,-0.00067,7,4.8,0.6
44.798,616727.69,-0.00013,0.00013,-0.00067,7,4.8,0.6
44.817,616727.71,-0.0012,0.00013,0.0004,7,4.8,0.6
44.838,616727.731,-0.00013,0.00013,-0.00067,7,4.8,0.6
44.856,616727.751,-0.00013,0.00013,0.0004,7,4.8,0.6
44.878,616727.771,-0.00013,0.00013,0.0004,7,4.8,0.6
44.899,616727.791,-0.0012,0.00013,0.0004,7,4.8,0.6
44.92,616727.811,-0.00013,0.00013,0.0004,7,4.8,0.6
44.938,616727.831,-0.00013,0.00013,0.0004,7,4.8,0.6
44.959,616727.851,-0.0012,0.00013,-0.00067,7,4.8,0.6
44.977,616727.871,-0.00013,0.00013,0.0004,7,4.8,0.6
45.001,616727.892,-0.00013,0.00013,0.0004,7,4.8,0.6
45.019,616727.912,-0.00013,0.00013,0.0004,7,4.8,0.6
45.038,616727.932,-0.00013,0.00013,0.0004,7,4.8,0.6
45.059,616727.952,-0.00013,0.00013,-0.00067,7,4.8,0.6
45.079,616727.972,-0.00013,0.00013,-0.00067,7,4.8,0.6
45.097,616727.992,-0.00013,0.00013,-0.00067,7,4.8,0.6
45.119,616728.012,-0.00013,0.00013,0.0004,7,4.8,0.6
45.137,616728.032,-0.00013,-0.00093,-0.00067,7,4.8,0.6
45.158,616728.052,-0.00013,0.00013,-0.00067,7,4.8,0.6
45.179,616728.073,-0.00013,0.00013,0.0004,7,4.8,0.6
45.2,616728.093,-0.0012,0.00013,-0.00067,7,4.8,0.6
45.222,616728.113,-0.0012,0.00013,0.0004,7,4.8,0.6
45.241,616728.133,-0.00013,0.00013,0.0004,7,4.8,0.6
45.261,616728.153,-0.00013,0.00013,0.0004,7,4.8,0.6
45.28,616728.173,-0.00013,0.0012,-0.00067,7,4.8,0.6
45.301,616728.193,-0.00013,0.00013,0.0004,7,4.8,0.6
45.322,616728.213,-0.00013,0.00013,-0.00067,7,4.8,0.6
45.341,616728.234,-0.00013,0.00013,0.0004,7,4.8,0.6
45.373,616728.254,-0.00013,0.00013,0.0004,7,4.8,0.6
45.382,616728.274,-0.00013,0.00013,-0.00067,7,4.8,0.6
45.399,616728.294,-0.00013,0.00013,-0.00067,7,4.8,0.6
45.421,616728.314,-0.0012,0.00013,-0.00067,7,4.8,0.6
45.442,616728.334,-0.0012,0.00013,0.0004,7,4.8,0.6
45.475,616728.354,-0.00013,0.00013,0.0004,7,4.8,0.6
45.482,616728.374,-0.00013,0.00013,-0.00067,7,4.8,0.6
45.499,616728.395,-0.00013,0.00013,0.0004,7,4.8,0.6
45.523,616728.415,-0.00013,0.00013,0.0004,7,4.8,0.6
45.541,616728.435,-0.00013,0.00013,0.0004,7,4.8,0.6
45.565,616728.455,-0.00013,0.00013,-0.00067,7,4.8,0.6
45.585,616728.475,-0.00013,-0.00093,-0.00067,7,4.8,0.6
45.603,616728.495,-0.00013,0.00013,-0.00067,7,4.8,0.6
45.623,616728.515,-0.00013,0.0012,0.0004,7,4.8,0.6
45.642,616728.535,-0.00013,0.0012,-0.00067,7,4.8,0.6
45.665,616728.556,-0.00013,0.00013,0.0004,7,4.8,0.6
45.686,616728.576,-0.0012,0.00013,0.0004,7,4.8,0.6
45.705,616728.596,-0.00013,0.00013,0.0004,7,4.8,0.6
45.724,616728.616,-0.0012,0.00013,0.0004,7,4.8,0.6
45.742,616728.636,-0.0012,0.00013,0.0004,7,4.8,0.6
45.768,616728.656,-0.00013,0.00013,0.0004,7,4.8,0.6
45.784,616728.676,-0.0012,0.00013,-0.00067,7,4.8,0.6
45.805,616728.696,-0.0012,0.00013,-0.00067,7,4.8,0.6
45.826,616728.716,-0.00013,0.00013,-0.00067,7,4.8,0.6
45.843,616728.737,-0.0012,0.0012,0.0004,7,4.8,0.6
45.863,616728.757,-0.00013,0.00013,0.0004,7,4.8,0.6
45.886,616728.777,-0.00013,-0.00093,0.0004,7,4.8,0.6
45.904,616728.797,-0.00013,0.00013,-0.00067,7,4.8,0.6
45.924,616728.817,-0.00013,0.00013,-0.00067,7,4.8,0.6
45.946,616728.837,-0.00013,0.00013,-0.00067,7,4.8,0.6
45.964,616728.857,-0.00013,0.00013,-0.00067,7,4.8,0.6
45.984,616728.877,-0.0012,0.00013,0.0004,7,4.8,0.6
46.004,616728.898,-0.00013,0.00013,-0.00067,7,4.8,0.6
46.024,616728.918,-0.00013,0.0012,0.0004,7,4.8,0.6
46.043,616728.938,-0.00013,0.0012,-0.00067,7,4.8,0.6
46.064,616728.958,-0.00013,0.00013,-0.00067,7,4.8,0.6
46.083,616728.978,-0.00013,0.00013,0.0004,7,4.8,0.6
46.103,616728.998,-0.00013,0.00013,-0.00067,7,4.8,0.6
46.124,616729.018,-0.00013,0.00013,0.0004,7,4.8,0.6
46.143,616729.038,-0.00013,0.00013,-0.00067,7,4.8,0.6
46.165,616729.059,-0.00013,0.0012,0.0004,7,4.8,0.6
46.183,616729.079,-0.00013,0.0012,0.0004,7,4.8,0.6
46.205,616729.099,-0.00013,-0.00093,0.0004,7,4.8,0.6
46.225,616729.119,-0.00013,0.00013,0.0004,7,4.8,0.6
46.245,616729.139,-0.00013,0.00013,0.0004,7,4.8,0.6
46.267,616729.159,-0.00013,0.00013,0.0004,7,4.8,0.6
46.286,616729.179,-0.00013,0.00013,-0.00067,7,4.8,0.6
46.305,616729.199,-0.00013,0.00013,-0.00067,7,4.8,0.6
46.327,616729.22,-0.0012,0.00013,0.0004,7,4.8,0.6
46.347,616729.24,-0.00013,0.00013,-0.00067,7,4.8,0.6
46.367,616729.26,-0.00013,0.00013,0.0004,7,4.8,0.6
