AppTimestamp(s),SensorTimestamp(s),Gyr_X,Gyr_Y,Gyr_Z,Label,Latitude,Longitude
0.047,2735683.175,0.08972,-0.00214,0.00031,9,4.8,6
0.048,2735683.194,-0.01229,0.01008,0.00214,9,4.8,6
0.049,2735683.213,-0.13263,0.00092,0.00458,9,4.8,6
0.05,2735683.232,-0.12408,0.00397,0.00458,9,4.8,6
0.069,2735683.251,-0.01718,0.00275,0.00092,9,4.8,6
0.089,2735683.27,0.07567,-0.00214,-0.00153,9,4.8,6
0.107,2735683.289,0.09583,-0.00031,-0.00092,9,4.8,6
0.123,2735683.308,0.03352,-0.00397,-0.00031,9,4.8,6
0.143,2735683.327,0.00481,-0.01069,0.00153,9,4.8,6
0.162,2735683.346,-0.00618,0.01008,0.00214,9,4.8,6
0.186,2735683.365,-0.03856,-0.00275,0.00214,9,4.8,6
0.201,2735683.384,-0.06238,0.01252,0.00031,9,4.8,6
0.221,2735683.403,-0.07399,0.00275,0.00092,9,4.8,6
0.238,2735683.422,-0.05811,0.01191,0.00153,9,4.8,6
0.258,2735683.441,-0.05383,0.0058,0.00336,9,4.8,6
0.277,2735683.46,-0.06116,0.00947,0.00397,9,4.8,6
0.296,2735683.479,-0.07888,0.00947,0.00336,9,4.8,6
0.316,2735683.498,-0.09537,0.00886,0.00275,9,4.8,6
0.333,2735683.517,-0.08376,0.01069,0.00214,9,4.8,6
0.356,2735683.536,-0.06605,0.01008,0.00153,9,4.8,6
0.373,2735683.555,-0.0575,0.00886,0.00153,9,4.8,6
0.392,2735683.574,-0.0636,0.00764,0.00153,9,4.8,6
0.41,2735683.593,-0.06788,0.00825,0.00275,9,4.8,6
0.43,2735683.612,-0.06971,0.00764,0.00275,9,4.8,6
0.449,2735683.631,-0.0691,0.01069,0.00275,9,4.8,6
0.467,2735683.65,-0.07704,0.0113,0.00275,9,4.8,6
0.488,2735683.669,-0.0917,0.01069,0.00275,9,4.8,6
0.506,2735683.688,-0.09415,0.0113,0.00092,9,4.8,6
0.525,2735683.707,-0.09109,0.01313,0.00031,9,4.8,6
0.544,2735683.726,-0.08498,0.01008,0.00092,9,4.8,6
0.563,2735683.745,-0.07216,0.00947,0.00153,9,4.8,6
0.582,2735683.764,-0.05078,0.00702,-0.00092,9,4.8,6
0.601,2735683.783,-0.03062,0.00397,-0.00031,9,4.8,6
0.619,2735683.802,-0.01168,0.00275,-0.00031,9,4.8,6
0.638,2735683.822,-0.00313,0.00092,-0.00031,9,4.8,6
0.656,2735683.841,0.00176,0.00092,0.00031,9,4.8,6
0.676,2735683.86,-0.0013,-0.00031,-0.00031,9,4.8,6
0.695,2735683.879,-0.00435,0.00092,0.00031,9,4.8,6
0.716,2735683.898,-0.00802,0.00092,0.00031,9,4.8,6
0.735,2735683.917,-0.00924,0.00153,0.00031,9,4.8,6
0.753,2735683.936,-0.00863,0.00153,-0.00031,9,4.8,6
0.772,2735683.955,-0.00496,0.00092,-0.00031,9,4.8,6
0.792,2735683.974,-0.0013,0.00031,0.00031,9,4.8,6
0.811,2735683.993,0.00053,0.00031,0.00031,9,4.8,6
0.83,2735684.012,0.00053,0.00092,0.00031,9,4.8,6
0.848,2735684.031,0.00053,0.00092,-0.00031,9,4.8,6
0.868,2735684.05,0.00359,0.00031,0.00031,9,4.8,6
0.887,2735684.069,0.00298,-0.00031,0.00031,9,4.8,6
0.907,2735684.088,-0.00313,-0.00031,0.00031,9,4.8,6
0.924,2735684.107,-0.01229,0.00092,0.00031,9,4.8,6
0.947,2735684.126,-0.01351,0.00153,0.00031,9,4.8,6
0.962,2735684.145,-0.01046,0.00092,0.00092,9,4.8,6
0.985,2735684.164,-0.00191,0.00092,0.00031,9,4.8,6
1.005,2735684.183,0.0042,-0.00031,0.00031,9,4.8,6
1.019,2735684.202,0.00664,-0.00031,-0.00031,9,4.8,6
1.039,2735684.221,0.00298,0.00031,0.00031,9,4.8,6
1.056,2735684.24,-0.0013,0.00153,0.00031,9,4.8,6
1.075,2735684.259,-0.0068,0.00092,0.00031,9,4.8,6
1.095,2735684.278,-0.00802,0.00092,-0.00092,9,4.8,6
1.115,2735684.297,-0.00496,0.00031,-0.00031,9,4.8,6
1.135,2735684.316,-0.0013,0.00031,0.00031,9,4.8,6
1.153,2735684.335,0.00237,-0.00031,0.00092,9,4.8,6
1.174,2735684.354,0.00298,0.00031,0.00031,9,4.8,6
1.189,2735684.373,0.00176,0.00031,-0.00031,9,4.8,6
1.212,2735684.392,-0.00252,0.00031,-0.00031,9,4.8,6
1.228,2735684.411,-0.00435,0.00031,0.00031,9,4.8,6
1.248,2735684.43,-0.00557,0.00092,0.00031,9,4.8,6
1.267,2735684.449,-0.00252,0.00031,-0.00031,9,4.8,6
1.287,2735684.468,-0.00069,-0.00031,-0.00031,9,4.8,6
1.305,2735684.487,0.00237,0.00031,0.00031,9,4.8,6
1.327,2735684.506,0.00176,0.00031,0.00031,9,4.8,6
1.342,2735684.525,0.00053,0.00031,0.00031,9,4.8,6
1.364,2735684.544,-0.00252,0.00031,0.00031,9,4.8,6
1.382,2735684.563,-0.00313,0.00031,0.00031,9,4.8,6
1.4,2735684.582,-0.00252,0.00092,0.00031,9,4.8,6
1.419,2735684.601,-0.00191,0.00031,0.00031,9,4.8,6
1.44,2735684.62,0.00053,0.00031,0.00031,9,4.8,6
1.458,2735684.639,0.00053,0.00031,0.00031,9,4.8,6
1.479,2735684.658,0.00053,-0.00031,0.00031,9,4.8,6
1.494,2735684.677,-0.0013,0.00092,0.00031,9,4.8,6
1.515,2735684.696,-0.00069,0.00092,-0.00031,9,4.8,6
1.537,2735684.716,-0.00252,-0.00031,-0.00031,9,4.8,6
1.553,2735684.735,-0.00069,0.00031,-0.00031,9,4.8,6
1.574,2735684.754,-0.0013,0.00031,0.00031,9,4.8,6
1.591,2735684.773,0.00053,0.00031,0.00092,9,4.8,6
1.608,2735684.792,0.00053,0.00031,0.00031,9,4.8,6
1.632,2735684.811,-8e-05,0.00031,0.00031,9,4.8,6
1.656,2735684.83,-0.0013,-0.00031,-0.00031,9,4.8,6
1.666,2735684.849,-0.0013,0.00031,0.00031,9,4.8,6
1.686,2735684.868,-0.00069,-0.00031,0.00031,9,4.8,6
1.704,2735684.887,-0.00069,0.00031,0.00031,9,4.8,6
1.724,2735684.906,0.00053,-0.00031,-0.00031,9,4.8,6
1.742,2735684.925,-8e-05,0.00031,0.00031,9,4.8,6
1.76,2735684.944,0.00115,0.00031,-0.00031,9,4.8,6
1.78,2735684.963,-0.00069,-0.00031,-0.00031,9,4.8,6
1.802,2735684.982,-8e-05,0.00031,0.00031,9,4.8,6
1.819,2735685.001,-0.00191,-0.00031,-0.00031,9,4.8,6
1.839,2735685.02,-8e-05,-0.00031,-0.00031,9,4.8,6
1.856,2735685.039,-0.0013,0.00031,-0.00031,9,4.8,6
1.878,2735685.058,-8e-05,0.00031,-0.00031,9,4.8,6
1.893,2735685.077,-0.00069,-0.00031,0.00031,9,4.8,6
1.914,2735685.096,-8e-05,-0.00031,0.00031,9,4.8,6
1.935,2735685.115,-0.00069,0.00031,0.00031,9,4.8,6
1.952,2735685.134,-0.00069,0.00031,-0.00031,9,4.8,6
1.971,2735685.153,-0.00069,0.00031,0.00031,9,4.8,6
1.99,2735685.172,-0.00069,0.00092,-0.00031,9,4.8,6
2.008,2735685.191,-8e-05,-0.00031,-0.00031,9,4.8,6
2.027,2735685.21,-8e-05,0.00031,0.00031,9,4.8,6
2.062,2735685.229,0.00053,0.00031,-0.00031,9,4.8,6
2.067,2735685.248,-0.0013,0.00031,-0.00031,9,4.8,6
2.083,2735685.267,-8e-05,0.00031,0.00031,9,4.8,6
2.103,2735685.286,-0.0013,0.00031,0.00031,9,4.8,6
2.122,2735685.305,-8e-05,0.00031,-0.00031,9,4.8,6
2.141,2735685.324,-0.00069,-0.00031,0.00092,9,4.8,6
2.16,2735685.343,-8e-05,0.00031,0.00092,9,4.8,6
2.179,2735685.362,-0.00069,-0.00031,0.00031,9,4.8,6
2.199,2735685.381,-8e-05,0.00092,0.00092,9,4.8,6
2.217,2735685.4,-8e-05,0.00031,0.00031,9,4.8,6
2.236,2735685.419,-8e-05,-0.00031,0.00031,9,4.8,6
2.255,2735685.438,-0.00069,-0.00031,0.00031,9,4.8,6
2.275,2735685.457,-0.00069,0.00031,0.00031,9,4.8,6
2.292,2735685.476,-0.00069,-0.00031,-0.00031,9,4.8,6
2.313,2735685.495,-8e-05,0.00031,-0.00031,9,4.8,6
2.331,2735685.514,-8e-05,0.00031,-0.00031,9,4.8,6
2.351,2735685.533,-0.00069,0.00092,0.00031,9,4.8,6
2.371,2735685.552,-0.00069,-0.00031,0.00031,9,4.8,6
2.389,2735685.571,-0.00069,-0.00031,0.00031,9,4.8,6
2.408,2735685.59,-8e-05,0.00031,0.00031,9,4.8,6
2.426,2735685.61,-8e-05,0.00031,0.00092,9,4.8,6
2.446,2735685.629,0.00053,0.00031,0.00031,9,4.8,6
2.464,2735685.648,-8e-05,0.00031,0.00031,9,4.8,6
2.487,2735685.667,0.00053,0.00092,0.00031,9,4.8,6
2.503,2735685.686,-8e-05,0.00031,-0.00031,9,4.8,6
2.522,2735685.705,-8e-05,0.00092,-0.00031,9,4.8,6
2.54,2735685.724,-8e-05,0.00031,-0.00031,9,4.8,6
2.559,2735685.743,-8e-05,0.00092,0.00031,9,4.8,6
2.582,2735685.762,-0.0013,0.00092,0.00031,9,4.8,6
2.601,2735685.781,-0.00069,0.00031,0.00031,9,4.8,6
2.616,2735685.8,-8e-05,0.00031,-0.00031,9,4.8,6
2.638,2735685.819,-0.0013,0.00031,-0.00031,9,4.8,6
2.655,2735685.838,-8e-05,0.00031,-0.00031,9,4.8,6
2.676,2735685.857,-0.00069,0.00031,0.00031,9,4.8,6
2.693,2735685.876,-8e-05,0.00031,0.00031,9,4.8,6
2.714,2735685.895,-0.0013,0.00092,0.00031,9,4.8,6
2.731,2735685.914,0.00053,0.00031,0.00031,9,4.8,6
2.75,2735685.933,-0.00069,0.00031,0.00031,9,4.8,6
2.773,2735685.952,0.00053,0.00031,0.00031,9,4.8,6
2.791,2735685.971,-0.00069,0.00031,0.00092,9,4.8,6
2.811,2735685.99,0.00053,0.00031,0.00092,9,4.8,6
2.826,2735686.009,-8e-05,0.00031,0.00031,9,4.8,6
2.846,2735686.028,-8e-05,0.00031,0.00031,9,4.8,6
2.865,2735686.047,-0.00069,0.00031,-0.00031,9,4.8,6
2.884,2735686.066,-8e-05,0.00031,0.00031,9,4.8,6
2.903,2735686.085,-8e-05,0.00031,0.00031,9,4.8,6
2.921,2735686.104,-8e-05,-0.00031,-0.00031,9,4.8,6
2.941,2735686.123,-8e-05,-0.00031,-0.00031,9,4.8,6
2.96,2735686.142,-0.00069,-0.00031,-0.00031,9,4.8,6
2.978,2735686.161,0.00053,0.00031,-0.00031,9,4.8,6
2.997,2735686.18,-8e-05,-0.00031,0.00031,9,4.8,6
3.015,2735686.199,-8e-05,-0.00031,-0.00031,9,4.8,6
3.036,2735686.218,-0.00069,-0.00031,-0.00031,9,4.8,6
3.055,2735686.237,0.00023,-8e-05,0.00015,9,4.8,6
3.074,2735686.256,-0.00099,-0.00069,0.00015,9,4.8,6
3.091,2735686.275,0.00076,-8e-05,-0.00046,9,4.8,6
3.111,2735686.294,-0.00046,-0.00069,0.00015,9,4.8,6
3.13,2735686.313,0.00015,-8e-05,-0.00046,9,4.8,6
3.149,2735686.332,0.00015,-0.00069,0.00015,9,4.8,6
3.169,2735686.351,0.00015,-0.0,0.00015,9,4.8,6
3.188,2735686.37,-0.00046,-0.0,0.00015,9,4.8,6
3.207,2735686.389,-0.00046,-0.0,0.00015,9,4.8,6
3.225,2735686.408,0.00015,-0.0,-0.00046,9,4.8,6
3.244,2735686.427,-0.00107,0.0,0.00015,9,4.8,6
3.263,2735686.446,0.00015,-0.00061,0.00015,9,4.8,6
3.282,2735686.465,-0.00046,8e-05,-0.00046,9,4.8,6
3.301,2735686.484,0.00076,8e-05,0.00015,9,4.8,6
3.321,2735686.504,-0.00046,-0.00053,-0.00046,9,4.8,6
3.339,2735686.523,0.00076,0.00069,-0.00046,9,4.8,6
3.357,2735686.542,-0.00046,8e-05,0.00015,9,4.8,6
3.377,2735686.561,0.00015,0.00015,-0.00046,9,4.8,6
3.396,2735686.58,-0.00107,-0.00046,-0.00046,9,4.8,6
3.415,2735686.599,0.00076,0.00015,-0.00038,9,4.8,6
3.435,2735686.618,0.00015,-0.00046,-0.00038,9,4.8,6
3.454,2735686.637,0.00015,0.00015,-0.00038,9,4.8,6
3.472,2735686.656,0.00015,-0.00046,0.00084,9,4.8,6
3.491,2735686.675,0.00015,0.00015,0.00023,9,4.8,6
3.51,2735686.694,0.00015,0.00023,0.00023,9,4.8,6
3.53,2735686.713,-0.00046,0.00023,0.00023,9,4.8,6
3.55,2735686.732,-0.00046,0.00023,0.00023,9,4.8,6
3.573,2735686.751,-0.00107,0.00023,0.00023,9,4.8,6
3.59,2735686.77,0.00015,0.00023,0.00084,9,4.8,6
3.607,2735686.789,-0.00046,0.00023,0.00084,9,4.8,6
3.626,2735686.808,0.00084,-0.00038,0.00023,9,4.8,6
3.666,2735686.827,-0.00038,-0.00099,-0.00038,9,4.8,6
3.666,2735686.846,0.00023,0.00023,-0.00038,9,4.8,6
3.681,2735686.865,-0.00099,0.00023,-0.00038,9,4.8,6
3.702,2735686.884,0.00023,0.00023,0.00023,9,4.8,6
3.72,2735686.903,-0.00038,0.00023,0.00023,9,4.8,6
3.738,2735686.922,0.00084,0.00084,0.00023,9,4.8,6
3.757,2735686.941,0.00084,0.00023,0.00023,9,4.8,6
3.777,2735686.96,0.00084,0.00023,0.00023,9,4.8,6
3.794,2735686.979,-0.00038,0.00023,0.00023,9,4.8,6
3.816,2735686.998,0.00023,0.00023,0.00023,9,4.8,6
3.835,2735687.017,-0.00038,-0.00046,0.00084,9,4.8,6
3.856,2735687.036,0.00023,0.00015,0.00023,9,4.8,6
3.874,2735687.055,0.00084,0.00015,0.00023,9,4.8,6
3.893,2735687.074,0.00023,-0.00046,-0.00038,9,4.8,6
3.912,2735687.093,0.00145,-0.00046,0.00023,9,4.8,6
3.934,2735687.112,-0.00038,0.00015,0.00023,9,4.8,6
3.951,2735687.131,0.00084,-0.00046,0.00023,9,4.8,6
3.968,2735687.15,-0.00038,-0.00046,0.00015,9,4.8,6
3.988,2735687.169,0.00084,0.00015,0.00015,9,4.8,6
4.006,2735687.188,-0.00038,-0.00046,-0.00046,9,4.8,6
4.028,2735687.207,0.00084,0.00015,-0.00046,9,4.8,6
4.044,2735687.226,0.00023,-0.00046,-0.00046,9,4.8,6
4.063,2735687.245,0.00015,0.00015,-0.00046,9,4.8,6
4.082,2735687.264,-0.00046,0.00015,-0.00046,9,4.8,6
4.101,2735687.283,0.00015,0.00015,8e-05,9,4.8,6
4.119,2735687.302,0.00015,0.00015,8e-05,9,4.8,6
4.137,2735687.321,-0.00107,-0.00046,8e-05,9,4.8,6
4.157,2735687.34,-0.00046,0.00015,-0.00053,9,4.8,6
4.177,2735687.359,-0.00046,0.00015,-0.00115,9,4.8,6
4.196,2735687.378,0.00015,0.00015,8e-05,9,4.8,6
4.217,2735687.398,-0.00053,-0.00046,8e-05,9,4.8,6
4.236,2735687.417,0.00069,0.00015,-0.00053,9,4.8,6
4.254,2735687.436,-0.00053,0.00076,-0.00053,9,4.8,6
4.272,2735687.455,0.00069,0.00015,8e-05,9,4.8,6
4.292,2735687.474,8e-05,-0.00046,-0.00053,9,4.8,6
4.31,2735687.493,0.00069,0.00015,0.00015,9,4.8,6
4.33,2735687.512,-0.00053,-0.00046,0.00015,9,4.8,6
4.349,2735687.531,8e-05,-0.00046,0.00015,9,4.8,6
4.369,2735687.55,8e-05,0.00015,-0.00046,9,4.8,6
4.387,2735687.569,8e-05,0.00015,0.00076,9,4.8,6
4.405,2735687.588,8e-05,-0.00046,0.00076,9,4.8,6
4.426,2735687.607,8e-05,0.00015,0.00076,9,4.8,6
4.443,2735687.626,8e-05,0.00015,0.00015,9,4.8,6
4.463,2735687.645,8e-05,0.00023,-0.00046,9,4.8,6
4.486,2735687.664,0.00069,0.00084,0.00023,9,4.8,6
4.501,2735687.683,8e-05,-0.00038,-0.00038,9,4.8,6
4.52,2735687.702,0.00069,0.00023,-0.00038,9,4.8,6
4.537,2735687.721,-0.00053,-0.00038,-0.00038,9,4.8,6
4.56,2735687.74,8e-05,0.00023,-0.00038,9,4.8,6
4.576,2735687.759,-0.00053,0.00023,0.00023,9,4.8,6
4.596,2735687.778,0.00069,0.00023,-0.00038,9,4.8,6
4.616,2735687.797,8e-05,0.00015,0.00023,9,4.8,6
4.638,2735687.816,0.00069,0.00015,0.00023,9,4.8,6
4.653,2735687.835,-0.00053,0.00015,0.00023,9,4.8,6
4.673,2735687.854,8e-05,-0.00046,0.00023,9,4.8,6
4.69,2735687.873,8e-05,0.00015,0.00023,9,4.8,6
4.709,2735687.892,8e-05,0.00076,0.00023,9,4.8,6
4.728,2735687.911,0.00069,0.00015,0.00023,9,4.8,6
4.748,2735687.93,8e-05,0.00015,-0.00038,9,4.8,6
4.769,2735687.949,8e-05,0.00015,0.00023,9,4.8,6
4.789,2735687.968,-0.00053,0.00015,0.00084,9,4.8,6
4.809,2735687.987,8e-05,0.00015,0.00084,9,4.8,6
4.824,2735688.006,-0.00053,-0.00046,-0.00038,9,4.8,6
4.842,2735688.025,0.00122,0.00015,0.00023,9,4.8,6
4.862,2735688.044,0.0,-0.00046,0.00023,9,4.8,6
4.884,2735688.063,0.00061,0.00015,-0.00038,9,4.8,6
4.9,2735688.082,-0.00061,0.00015,-0.00038,9,4.8,6
4.919,2735688.101,0.00061,0.00015,0.00015,9,4.8,6
4.937,2735688.12,-0.00061,-0.00046,0.00015,9,4.8,6
4.957,2735688.139,0.00061,0.00076,0.00015,9,4.8,6
4.976,2735688.158,-0.0,0.00015,0.00015,9,4.8,6
4.996,2735688.177,-0.0,8e-05,0.00015,9,4.8,6
5.015,2735688.196,-0.0,-0.00053,-0.00046,9,4.8,6
5.033,2735688.215,-0.0,8e-05,-0.00046,9,4.8,6
5.057,2735688.234,-0.0,8e-05,0.00076,9,4.8,6
5.075,2735688.253,-0.0,-0.00053,0.00076,9,4.8,6
5.09,2735688.272,0.00061,8e-05,0.00015,9,4.8,6
5.108,2735688.291,-0.00061,-0.00053,-0.00046,9,4.8,6
5.128,2735688.311,-0.0,8e-05,-0.00046,9,4.8,6
5.147,2735688.33,-0.0013,-0.00053,-0.00046,9,4.8,6
5.165,2735688.349,-8e-05,8e-05,0.00015,9,4.8,6
5.186,2735688.368,-0.0013,8e-05,0.00015,9,4.8,6
5.208,2735688.387,-8e-05,8e-05,-0.00046,9,4.8,6
5.226,2735688.406,-8e-05,8e-05,0.00015,9,4.8,6
5.242,2735688.425,0.00053,8e-05,0.00015,9,4.8,6
5.262,2735688.444,-8e-05,8e-05,0.00015,9,4.8,6
5.281,2735688.463,-8e-05,8e-05,0.00015,9,4.8,6
5.298,2735688.482,-0.0,-0.00053,-0.00046,9,4.8,6
5.318,2735688.501,-0.00061,8e-05,8e-05,9,4.8,6
5.34,2735688.52,-0.0,8e-05,8e-05,9,4.8,6
5.361,2735688.539,-0.00061,-0.00053,0.00076,9,4.8,6
5.379,2735688.558,0.00061,8e-05,0.00076,9,4.8,6
5.394,2735688.577,-0.00061,8e-05,0.00015,9,4.8,6
5.414,2735688.596,0.00061,8e-05,0.00015,9,4.8,6
5.433,2735688.615,-0.00061,0.00015,0.00015,9,4.8,6
5.457,2735688.634,0.00061,0.00015,0.00015,9,4.8,6
5.475,2735688.653,-0.00061,-0.00046,-0.00046,9,4.8,6
5.494,2735688.672,0.00061,0.00015,-0.00046,9,4.8,6
5.513,2735688.691,0.0,0.00015,0.00015,9,4.8,6
5.527,2735688.71,0.00061,0.00015,0.00015,9,4.8,6
5.55,2735688.729,-0.00053,-0.00046,0.00015,9,4.8,6
5.569,2735688.748,0.00069,0.00015,8e-05,9,4.8,6
5.587,2735688.767,-0.00053,-0.00046,-0.00053,9,4.8,6
5.605,2735688.786,8e-05,-0.00046,8e-05,9,4.8,6
5.623,2735688.805,8e-05,0.00015,0.00069,9,4.8,6
5.662,2735688.824,8e-05,-0.00046,8e-05,9,4.8,6
5.663,2735688.843,8e-05,0.00015,8e-05,9,4.8,6
5.679,2735688.862,8e-05,0.00015,8e-05,9,4.8,6
5.697,2735688.881,0.00069,0.00015,8e-05,9,4.8,6
5.717,2735688.9,-0.00053,0.00015,8e-05,9,4.8,6
5.737,2735688.919,0.00069,0.00015,8e-05,9,4.8,6
5.756,2735688.938,-0.00115,-0.00046,8e-05,9,4.8,6
5.779,2735688.957,8e-05,0.00015,-0.00053,9,4.8,6
5.793,2735688.976,8e-05,0.00015,-0.00053,9,4.8,6
5.814,2735688.995,0.00069,0.00015,-0.00053,9,4.8,6
5.836,2735689.014,-0.00053,0.00015,8e-05,9,4.8,6
5.853,2735689.033,8e-05,-0.00046,8e-05,9,4.8,6
5.873,2735689.052,-0.00053,0.00015,8e-05,9,4.8,6
5.891,2735689.071,8e-05,0.00015,-0.00053,9,4.8,6
5.91,2735689.09,-0.00053,0.00015,8e-05,9,4.8,6
5.927,2735689.109,8e-05,0.00015,-0.00053,9,4.8,6
5.946,2735689.128,0.00069,0.00015,-0.00053,9,4.8,6
5.968,2735689.147,8e-05,0.00015,8e-05,9,4.8,6
5.985,2735689.166,8e-05,0.00076,8e-05,9,4.8,6
6.006,2735689.185,-0.00053,-0.00046,8e-05,9,4.8,6
6.022,2735689.205,8e-05,-0.00046,8e-05,9,4.8,6
6.041,2735689.224,-0.00053,-0.00046,0.00069,9,4.8,6
6.06,2735689.243,8e-05,-0.00046,8e-05,9,4.8,6
6.08,2735689.262,-0.00053,-0.00046,8e-05,9,4.8,6
6.097,2735689.281,0.00069,-0.00046,-0.00053,9,4.8,6
6.117,2735689.3,-0.00053,-0.00046,-0.00053,9,4.8,6
6.137,2735689.319,8e-05,-0.00046,8e-05,9,4.8,6
6.156,2735689.338,8e-05,-0.00046,8e-05,9,4.8,6
6.178,2735689.357,8e-05,0.00015,8e-05,9,4.8,6
6.192,2735689.376,-0.00053,0.00015,8e-05,9,4.8,6
6.211,2735689.395,8e-05,0.00015,-0.00046,9,4.8,6
6.235,2735689.414,8e-05,0.00015,-0.00107,9,4.8,6
6.254,2735689.433,8e-05,0.00015,-0.00046,9,4.8,6
6.27,2735689.452,8e-05,0.00015,-0.00046,9,4.8,6
6.293,2735689.471,-0.00053,0.00015,0.00015,9,4.8,6
6.31,2735689.49,0.00069,0.00076,0.00076,9,4.8,6
6.328,2735689.509,-0.00053,0.00015,0.00015,9,4.8,6
6.345,2735689.528,8e-05,0.00023,-0.00046,9,4.8,6
6.367,2735689.547,-0.00053,0.00023,0.00015,9,4.8,6
6.384,2735689.566,8e-05,0.00023,-0.00046,9,4.8,6
6.403,2735689.585,8e-05,0.00023,0.00015,9,4.8,6
6.421,2735689.604,8e-05,0.00023,-0.00046,9,4.8,6
6.44,2735689.623,-0.00046,0.00023,-0.00046,9,4.8,6
6.46,2735689.642,0.00076,-0.00038,0.00015,9,4.8,6
6.479,2735689.661,0.00015,-0.00038,0.00015,9,4.8,6
6.497,2735689.68,-0.00046,0.00023,0.00023,9,4.8,6
6.517,2735689.699,-0.00046,0.00023,-0.00038,9,4.8,6
6.541,2735689.718,-0.00046,0.00023,0.00023,9,4.8,6
6.56,2735689.737,0.00076,0.00023,-0.00038,9,4.8,6
6.576,2735689.756,0.00015,-0.00038,0.00023,9,4.8,6
6.594,2735689.775,0.00076,-0.00038,0.00023,9,4.8,6
6.612,2735689.794,0.00015,-0.00038,0.00084,9,4.8,6
6.631,2735689.813,0.00076,-0.00038,0.00023,9,4.8,6
6.654,2735689.832,-0.00046,-0.00046,0.00023,9,4.8,6
6.672,2735689.851,0.00076,0.00015,0.00023,9,4.8,6
6.691,2735689.87,-0.00107,0.00015,0.00023,9,4.8,6
6.709,2735689.889,0.00015,0.00015,0.00023,9,4.8,6
6.725,2735689.908,-0.00046,0.00015,0.00023,9,4.8,6
6.745,2735689.927,0.00076,0.00015,-0.00038,9,4.8,6
6.765,2735689.946,-0.00046,0.00015,0.00023,9,4.8,6
6.785,2735689.965,0.00015,0.00015,-0.00038,9,4.8,6
6.806,2735689.984,0.00015,0.00015,-0.00038,9,4.8,6
6.822,2735690.003,0.00015,0.00076,0.00023,9,4.8,6
6.84,2735690.022,0.00015,0.00076,0.00023,9,4.8,6
6.859,2735690.041,0.00015,0.00015,-0.00038,9,4.8,6
6.879,2735690.06,0.00076,0.00076,0.00023,9,4.8,6
6.897,2735690.079,-0.00046,0.00015,0.00023,9,4.8,6
6.916,2735690.099,0.00069,0.00015,-0.00038,9,4.8,6
6.936,2735690.118,-0.00053,0.00015,0.00023,9,4.8,6
6.954,2735690.137,8e-05,0.00015,-0.00038,9,4.8,6
6.975,2735690.156,-0.00053,-0.00046,0.00023,9,4.8,6
6.991,2735690.175,8e-05,0.00015,-0.00046,9,4.8,6
7.01,2735690.194,-0.00053,-0.00046,-0.00046,9,4.8,6
7.034,2735690.213,0.00069,0.00015,-0.00046,9,4.8,6
7.049,2735690.232,-0.00115,0.00015,0.00015,9,4.8,6
7.075,2735690.251,0.00069,0.00015,0.00076,9,4.8,6
7.087,2735690.27,-0.00053,-0.00046,0.00076,9,4.8,6
7.105,2735690.289,8e-05,0.00015,-0.00046,9,4.8,6
7.125,2735690.308,-0.00053,8e-05,-0.00046,9,4.8,6
7.143,2735690.327,8e-05,8e-05,-0.00046,9,4.8,6
7.163,2735690.346,0.00069,-0.00053,-0.00046,9,4.8,6
7.183,2735690.365,8e-05,8e-05,-0.00046,9,4.8,6
7.206,2735690.384,0.00069,8e-05,0.00015,9,4.8,6
7.221,2735690.403,-0.00053,-0.00053,0.00015,9,4.8,6
7.238,2735690.422,0.00069,-0.00053,-0.00046,9,4.8,6
7.257,2735690.441,8e-05,8e-05,0.00015,9,4.8,6
7.277,2735690.46,0.00069,8e-05,0.00015,9,4.8,6
7.297,2735690.479,-0.00053,8e-05,0.00023,9,4.8,6
7.315,2735690.498,0.0013,8e-05,0.00023,9,4.8,6
7.335,2735690.517,-0.00053,-0.00053,-0.00038,9,4.8,6
7.354,2735690.536,0.00069,8e-05,0.00023,9,4.8,6
7.373,2735690.555,-0.00053,-0.00053,0.00084,9,4.8,6
7.391,2735690.574,8e-05,8e-05,0.00084,9,4.8,6
7.411,2735690.593,8e-05,8e-05,0.00084,9,4.8,6
7.43,2735690.612,8e-05,-0.00053,0.00023,9,4.8,6
7.449,2735690.631,8e-05,8e-05,0.00023,9,4.8,6
7.472,2735690.65,8e-05,8e-05,0.00023,9,4.8,6
7.487,2735690.669,0.00069,-0.00053,-0.00038,9,4.8,6
7.509,2735690.688,8e-05,8e-05,0.00023,9,4.8,6
7.528,2735690.707,0.00069,0.00069,0.00023,9,4.8,6
7.545,2735690.726,8e-05,-0.00053,-0.00038,9,4.8,6
7.567,2735690.745,0.0013,8e-05,-0.00038,9,4.8,6
7.582,2735690.764,-0.00115,0.00015,0.00023,9,4.8,6
7.604,2735690.783,0.00061,0.00076,-0.00038,9,4.8,6
7.62,2735690.802,-0.00061,0.00015,0.00023,9,4.8,6
7.663,2735690.821,0.00061,0.00015,-0.00046,9,4.8,6
7.664,2735690.84,0.0,-0.00046,-0.00046,9,4.8,6
7.676,2735690.859,-0.0,0.00015,0.00015,9,4.8,6
7.695,2735690.878,-0.00061,0.00015,0.00015,9,4.8,6
7.717,2735690.897,-0.0,0.00015,0.00015,9,4.8,6
7.735,2735690.916,-0.0,0.00015,-0.00046,9,4.8,6
7.754,2735690.935,-0.00069,0.00015,-0.00046,9,4.8,6
7.776,2735690.954,-8e-05,0.00015,0.00015,9,4.8,6
7.794,2735690.973,-8e-05,0.00015,0.00015,9,4.8,6
7.81,2735690.993,0.00053,0.00015,-0.00046,9,4.8,6
7.829,2735691.012,-8e-05,-0.00046,0.00015,9,4.8,6
7.851,2735691.031,0.00053,0.00015,0.00015,9,4.8,6
7.868,2735691.05,-8e-05,-0.00046,0.00015,9,4.8,6
7.889,2735691.069,0.00053,0.00015,0.00015,9,4.8,6
7.906,2735691.088,-8e-05,-0.00046,0.00015,9,4.8,6
7.925,2735691.107,0.00053,-0.00046,0.00015,9,4.8,6
7.944,2735691.126,-0.00069,-0.00046,0.00015,9,4.8,6
7.963,2735691.145,-8e-05,0.00015,-0.00046,9,4.8,6
7.985,2735691.164,-0.0013,0.00015,-0.00046,9,4.8,6
8.0,2735691.183,-8e-05,0.00076,-0.00046,9,4.8,6
8.021,2735691.202,-8e-05,0.00015,0.00015,9,4.8,6
8.036,2735691.221,0.00053,0.00015,0.00015,9,4.8,6
8.059,2735691.24,-8e-05,0.00015,-0.00046,9,4.8,6
8.077,2735691.259,-8e-05,0.00015,0.00015,9,4.8,6
8.096,2735691.278,-8e-05,0.00015,-0.00046,9,4.8,6
8.115,2735691.297,-0.00069,0.00015,-0.00107,9,4.8,6
8.135,2735691.316,-8e-05,0.00076,0.00015,9,4.8,6
8.153,2735691.335,-0.00069,8e-05,0.00015,9,4.8,6
8.171,2735691.354,-8e-05,8e-05,0.00084,9,4.8,6
8.191,2735691.373,-0.00069,8e-05,-0.00038,9,4.8,6
8.212,2735691.392,0.00053,0.00069,0.00023,9,4.8,6
8.229,2735691.411,-0.00069,8e-05,0.00023,9,4.8,6
8.248,2735691.43,-8e-05,-0.00053,0.00023,9,4.8,6
8.268,2735691.449,-0.00061,-0.00053,-0.00038,9,4.8,6
8.288,2735691.468,-0.00061,8e-05,-0.00038,9,4.8,6
8.306,2735691.487,-0.0,8e-05,0.00023,9,4.8,6
8.326,2735691.506,0.00061,8e-05,-0.00038,9,4.8,6
8.343,2735691.525,-0.00061,8e-05,-0.00038,9,4.8,6
8.363,2735691.544,-0.0,8e-05,-0.00038,9,4.8,6
8.381,2735691.563,-0.00061,8e-05,0.00023,9,4.8,6
8.4,2735691.582,-0.00061,8e-05,-0.00038,9,4.8,6
8.418,2735691.601,0.0,8e-05,0.00023,9,4.8,6
8.436,2735691.62,-0.00061,-0.00053,-0.00038,9,4.8,6
8.458,2735691.639,0.0,8e-05,-0.00038,9,4.8,6
8.476,2735691.658,8e-05,-0.00053,0.00023,9,4.8,6
8.497,2735691.677,0.00069,8e-05,-0.00038,9,4.8,6
8.514,2735691.696,-0.00053,8e-05,-0.00038,9,4.8,6
8.536,2735691.715,8e-05,8e-05,-0.00038,9,4.8,6
8.551,2735691.734,-0.00053,-0.00115,0.00023,9,4.8,6
8.575,2735691.753,0.00069,-0.00053,-0.00038,9,4.8,6
8.592,2735691.772,8e-05,8e-05,0.00031,9,4.8,6
8.611,2735691.791,0.00076,8e-05,0.00031,9,4.8,6
8.629,2735691.81,0.00015,8e-05,0.00031,9,4.8,6
8.647,2735691.829,-0.00046,8e-05,0.00031,9,4.8,6
8.67,2735691.848,0.00015,-0.00053,-0.00031,9,4.8,6
8.689,2735691.867,0.00015,8e-05,-0.00031,9,4.8,6
8.706,2735691.887,0.00076,8e-05,0.00031,9,4.8,6
8.724,2735691.906,0.00015,8e-05,0.00031,9,4.8,6
8.742,2735691.925,0.00076,8e-05,0.00031,9,4.8,6
8.761,2735691.944,-0.00046,8e-05,0.00031,9,4.8,6
8.781,2735691.963,0.00076,-0.00053,0.00031,9,4.8,6
8.799,2735691.982,-0.00107,-0.00053,0.00092,9,4.8,6
8.819,2735692.001,0.00076,8e-05,0.00092,9,4.8,6
8.836,2735692.02,-0.00046,-0.00053,0.00031,9,4.8,6
8.86,2735692.039,0.00076,8e-05,0.00031,9,4.8,6
8.875,2735692.058,0.00015,-0.00053,0.00031,9,4.8,6
8.894,2735692.077,0.00076,0.00015,0.00031,9,4.8,6
8.914,2735692.096,0.00015,-0.00046,0.00031,9,4.8,6
8.932,2735692.115,0.00015,-0.00046,-0.00031,9,4.8,6
8.953,2735692.134,0.00015,0.00015,0.00031,9,4.8,6
8.973,2735692.153,8e-05,0.00015,-0.00031,9,4.8,6
8.991,2735692.172,8e-05,0.00015,-0.00031,9,4.8,6
9.012,2735692.191,-0.00053,0.00015,-0.00038,9,4.8,6
9.027,2735692.21,8e-05,0.00015,-0.00038,9,4.8,6
9.046,2735692.229,-0.00053,0.00015,0.00023,9,4.8,6
9.075,2735692.248,8e-05,0.00023,-0.00038,9,4.8,6
9.084,2735692.267,-0.00053,-0.00038,0.00023,9,4.8,6
9.105,2735692.286,0.00069,0.00023,-0.00038,9,4.8,6
9.122,2735692.305,-0.00061,-0.00038,-0.00038,9,4.8,6
9.141,2735692.324,0.00061,0.00023,0.00023,9,4.8,6
9.16,2735692.343,-0.00061,-0.00038,0.00023,9,4.8,6
9.179,2735692.362,0.0,0.00023,0.00015,9,4.8,6
9.198,2735692.381,-0.00061,0.00023,-0.00046,9,4.8,6
9.216,2735692.4,0.0,0.00023,-0.00046,9,4.8,6
9.236,2735692.419,-0.00061,0.00023,0.00015,9,4.8,6
9.255,2735692.438,0.0,0.00023,0.00015,9,4.8,6
9.279,2735692.457,-0.00061,-0.00038,-0.00046,9,4.8,6
9.292,2735692.476,-0.00061,-0.00038,-0.00046,9,4.8,6
9.313,2735692.495,0.00061,0.00023,0.00015,9,4.8,6
9.335,2735692.514,-0.00061,0.00023,0.00015,9,4.8,6
9.354,2735692.533,0.00061,-0.00038,0.00015,9,4.8,6
9.372,2735692.552,-0.00061,0.00023,0.00015,9,4.8,6
9.389,2735692.571,0.00061,0.00023,-0.00046,9,4.8,6
9.408,2735692.59,0.0,0.00023,-0.00046,9,4.8,6
9.426,2735692.609,0.00069,0.00023,0.00015,9,4.8,6
9.45,2735692.628,-0.00053,0.00023,0.00076,9,4.8,6
9.465,2735692.647,0.00069,0.00023,-0.00038,9,4.8,6
9.487,2735692.666,-0.00053,-0.00038,-0.00038,9,4.8,6
9.502,2735692.685,0.00069,-0.00038,-0.00038,9,4.8,6
9.522,2735692.704,0.00069,-0.00038,-0.00038,9,4.8,6
9.54,2735692.723,8e-05,-0.00038,-0.00038,9,4.8,6
9.564,2735692.742,-0.00053,0.00023,0.00023,9,4.8,6
9.578,2735692.761,-0.00053,0.00084,0.00023,9,4.8,6
9.597,2735692.781,8e-05,0.00023,-0.00038,9,4.8,6
9.617,2735692.8,8e-05,-0.00038,0.00023,9,4.8,6
9.647,2735692.819,0.00069,0.00023,-0.00038,9,4.8,6
9.657,2735692.838,8e-05,0.00023,0.00023,9,4.8,6
9.675,2735692.857,0.00069,-0.00038,0.00023,9,4.8,6
9.692,2735692.876,8e-05,-0.00038,0.00023,9,4.8,6
9.713,2735692.895,0.00069,0.00015,-0.00031,9,4.8,6
9.731,2735692.914,-0.00053,-0.00046,0.00031,9,4.8,6
9.751,2735692.933,8e-05,0.00015,-0.00031,9,4.8,6
9.77,2735692.952,-0.00053,-0.00046,-0.00031,9,4.8,6
9.79,2735692.971,8e-05,0.00015,-0.00092,9,4.8,6
9.808,2735692.99,8e-05,-0.00038,-0.00031,9,4.8,6
9.825,2735693.009,8e-05,0.00023,-0.00031,9,4.8,6
9.849,2735693.028,0.00069,0.00023,-0.00031,9,4.8,6
9.868,2735693.047,8e-05,-0.00038,-0.00031,9,4.8,6
9.887,2735693.066,8e-05,-0.00038,0.00031,9,4.8,6
9.902,2735693.085,8e-05,0.00023,0.00031,9,4.8,6
9.926,2735693.104,0.00061,0.00023,0.00031,9,4.8,6
9.939,2735693.123,0.0,-0.00038,-0.00031,9,4.8,6
9.961,2735693.142,0.0,0.00023,-0.00031,9,4.8,6
9.979,2735693.161,-0.00061,-0.00038,0.00031,9,4.8,6
9.997,2735693.18,0.0,0.00023,-0.00031,9,4.8,6
10.017,2735693.199,-0.00061,0.00023,0.00031,9,4.8,6
10.037,2735693.218,0.00061,0.00023,0.00031,9,4.8,6
10.059,2735693.237,-0.00061,-0.00038,0.00031,9,4.8,6
10.075,2735693.256,0.00061,0.00023,-0.00031,9,4.8,6
10.092,2735693.275,-0.00122,0.00023,-0.00031,9,4.8,6
10.112,2735693.294,0.00061,0.00023,0.00031,9,4.8,6
10.131,2735693.313,-0.0,-0.00038,0.00038,9,4.8,6
10.151,2735693.332,-0.0,0.00023,0.00038,9,4.8,6
10.17,2735693.351,-0.0,0.00023,0.00038,9,4.8,6
10.189,2735693.37,-0.00061,-0.00038,0.00038,9,4.8,6
10.207,2735693.389,-0.00061,-0.00038,0.00099,9,4.8,6
10.228,2735693.408,-0.00061,0.00023,-0.00023,9,4.8,6
10.245,2735693.427,-0.00061,0.00023,-0.00023,9,4.8,6
10.264,2735693.446,-0.00061,0.00023,-0.00023,9,4.8,6
10.287,2735693.465,0.00061,0.00023,0.00038,9,4.8,6
10.302,2735693.484,-0.00061,0.00023,-0.00023,9,4.8,6
10.322,2735693.503,0.00061,0.00023,0.00038,9,4.8,6
10.338,2735693.522,-0.00061,-0.00038,-0.00023,9,4.8,6
10.358,2735693.541,0.0,-0.00038,-0.00031,9,4.8,6
10.379,2735693.56,-0.00061,-0.00038,-0.00031,9,4.8,6
10.396,2735693.579,0.00061,0.00023,-0.00031,9,4.8,6
10.416,2735693.598,0.0,0.00023,-0.00031,9,4.8,6
10.44,2735693.617,8e-05,0.00023,0.00031,9,4.8,6
10.459,2735693.636,-0.00053,0.00023,0.00031,9,4.8,6
10.476,2735693.655,8e-05,-0.00038,0.00031,9,4.8,6
10.495,2735693.675,8e-05,-0.00038,-0.00031,9,4.8,6
10.511,2735693.694,8e-05,-0.00038,0.00031,9,4.8,6
10.531,2735693.713,0.00069,0.00023,0.00031,9,4.8,6
10.549,2735693.732,-0.00053,0.00023,0.00031,9,4.8,6
10.573,2735693.751,0.00069,-0.00038,0.00031,9,4.8,6
10.591,2735693.77,8e-05,-0.00038,-0.00031,9,4.8,6
10.606,2735693.789,0.00015,-0.00038,-0.00031,9,4.8,6
10.624,2735693.808,-0.00046,0.00023,0.00031,9,4.8,6
10.647,2735693.827,0.00076,0.00023,0.00031,9,4.8,6
10.667,2735693.846,-0.00046,-0.00038,0.00031,9,4.8,6
10.683,2735693.865,0.00015,0.00023,0.00023,9,4.8,6
10.705,2735693.884,0.00015,0.00023,-0.00038,9,4.8,6
10.721,2735693.903,0.00076,0.00023,-0.00038,9,4.8,6
10.737,2735693.922,0.00015,-0.00038,0.00023,9,4.8,6
10.757,2735693.941,0.00015,0.00023,0.00084,9,4.8,6
10.776,2735693.96,0.00015,0.00023,-0.00038,9,4.8,6
10.797,2735693.979,0.00076,0.00023,-0.00038,9,4.8,6
10.817,2735693.998,0.00015,0.00084,-0.00038,9,4.8,6
10.837,2735694.017,-0.00046,0.00023,-0.00038,9,4.8,6
10.858,2735694.036,0.00076,0.00023,0.00023,9,4.8,6
10.877,2735694.055,-0.00053,0.00023,0.00023,9,4.8,6
10.891,2735694.074,0.00069,0.00023,0.00023,9,4.8,6
10.911,2735694.093,-0.00053,-0.00038,-0.00038,9,4.8,6
10.93,2735694.112,0.00069,0.00023,0.00023,9,4.8,6
10.949,2735694.131,-0.00053,-0.00038,0.00023,9,4.8,6
10.971,2735694.15,0.00069,-0.00038,0.00023,9,4.8,6
10.988,2735694.169,8e-05,0.00023,-0.00038,9,4.8,6
11.004,2735694.188,0.00069,0.00023,0.00023,9,4.8,6
11.024,2735694.207,-0.00053,0.00023,0.00023,9,4.8,6
11.044,2735694.226,8e-05,0.00023,-0.00038,9,4.8,6
11.063,2735694.245,0.0,-0.00038,-0.00038,9,4.8,6
11.081,2735694.264,0.0,-0.00038,-0.00038,9,4.8,6
11.1,2735694.283,0.0,0.00023,-0.00038,9,4.8,6
11.119,2735694.302,0.0,0.00023,0.00023,9,4.8,6
11.137,2735694.321,0.0,-0.00038,-0.00038,9,4.8,6
11.156,2735694.34,-0.00061,0.00023,-0.00099,9,4.8,6
11.177,2735694.359,0.00061,0.00084,-0.00038,9,4.8,6
11.197,2735694.378,-0.0,0.00023,0.00023,9,4.8,6
11.217,2735694.397,0.00061,0.00015,0.00023,9,4.8,6
11.236,2735694.416,-0.00061,-0.00046,0.00023,9,4.8,6
11.256,2735694.435,0.00061,0.00015,-0.00038,9,4.8,6
11.276,2735694.454,-0.00122,0.00015,-0.00038,9,4.8,6
11.297,2735694.473,-0.0,0.00015,-0.00038,9,4.8,6
11.31,2735694.492,-0.0,-0.00046,0.00023,9,4.8,6
11.329,2735694.511,-0.0,-0.00046,-0.00038,9,4.8,6
11.349,2735694.53,-0.0,0.00015,-0.00031,9,4.8,6
11.372,2735694.549,0.00061,0.00015,-0.00031,9,4.8,6
11.389,2735694.569,-0.0,0.00015,-0.00031,9,4.8,6
11.404,2735694.588,-0.0,-0.00046,-0.00031,9,4.8,6
11.427,2735694.607,-0.0,0.00015,-0.00031,9,4.8,6
11.447,2735694.626,-0.00061,0.00015,0.00031,9,4.8,6
11.462,2735694.645,0.00061,0.00015,-0.00031,9,4.8,6
11.485,2735694.664,-0.00061,-0.00046,-0.00031,9,4.8,6
11.5,2735694.683,0.00061,0.00015,-0.00031,9,4.8,6
11.523,2735694.702,-0.00061,0.00015,0.00031,9,4.8,6
11.538,2735694.721,-0.0,0.00015,0.00031,9,4.8,6
11.558,2735694.74,-0.00061,0.00015,0.00038,9,4.8,6
11.578,2735694.759,0.00061,0.00015,-0.00023,9,4.8,6
11.596,2735694.778,-0.00061,0.00015,-0.00023,9,4.8,6
11.615,2735694.797,0.00061,0.00015,-0.00023,9,4.8,6
11.635,2735694.816,-0.00061,-0.00046,-0.00084,9,4.8,6
11.651,2735694.835,-0.0,0.00015,-0.00084,9,4.8,6
11.671,2735694.854,-0.00061,0.00015,0.00038,9,4.8,6
11.689,2735694.873,0.0,0.00015,-0.00023,9,4.8,6
11.709,2735694.892,-0.00061,0.00015,-0.00023,9,4.8,6
11.727,2735694.911,0.0,-0.00046,-0.00023,9,4.8,6
11.747,2735694.93,0.00061,0.00015,-0.00015,9,4.8,6
11.766,2735694.949,-0.00061,0.00015,-0.00015,9,4.8,6
11.785,2735694.968,0.0,0.00015,0.00046,9,4.8,6
11.805,2735694.987,-0.00061,0.00015,-0.00015,9,4.8,6
11.822,2735695.006,0.00061,0.00015,-0.00015,9,4.8,6
11.841,2735695.025,-0.00061,-0.00046,-0.00015,9,4.8,6
11.861,2735695.044,8e-05,0.00015,0.00046,9,4.8,6
11.88,2735695.063,-0.00053,0.00015,0.00046,9,4.8,6
11.9,2735695.082,8e-05,0.00015,-0.00015,9,4.8,6
11.919,2735695.101,-0.00053,-0.00046,0.00046,9,4.8,6
11.935,2735695.12,0.00069,0.00015,0.00046,9,4.8,6
11.955,2735695.139,-0.00053,0.00015,0.00046,9,4.8,6
11.975,2735695.158,8e-05,0.00015,0.00046,9,4.8,6
11.994,2735695.177,8e-05,-0.00046,0.00046,9,4.8,6
12.014,2735695.196,8e-05,-0.00046,-0.00015,9,4.8,6
12.033,2735695.215,8e-05,-0.00046,-0.00015,9,4.8,6
12.051,2735695.234,8e-05,-0.00046,-0.00015,9,4.8,6
12.072,2735695.253,0.00069,-0.00046,0.00046,9,4.8,6
12.089,2735695.272,8e-05,-0.00046,0.00046,9,4.8,6
12.108,2735695.291,0.00069,0.00015,-0.00015,9,4.8,6
12.127,2735695.31,-0.00046,0.00015,0.00046,9,4.8,6
12.145,2735695.329,0.00076,0.00015,0.00046,9,4.8,6
12.164,2735695.348,-0.00046,0.00015,0.00046,9,4.8,6
12.185,2735695.367,0.00076,0.00015,0.00046,9,4.8,6
12.203,2735695.386,-0.00046,-0.00046,0.00046,9,4.8,6
12.223,2735695.405,0.00076,0.00015,0.00046,9,4.8,6
12.24,2735695.424,0.00015,-0.00046,0.00046,9,4.8,6
12.261,2735695.443,0.00076,-0.00046,0.00046,9,4.8,6
12.282,2735695.463,-0.00046,0.00015,0.00038,9,4.8,6
12.299,2735695.482,-0.00053,0.00015,-0.00023,9,4.8,6
12.317,2735695.501,-0.00053,0.00015,-0.00023,9,4.8,6
12.336,2735695.52,-0.00053,-0.00046,0.00038,9,4.8,6
12.357,2735695.539,8e-05,0.00015,0.00038,9,4.8,6
12.375,2735695.558,8e-05,0.00023,0.00038,9,4.8,6
12.393,2735695.577,8e-05,-0.00038,0.00031,9,4.8,6
12.413,2735695.596,-0.00053,-0.00038,-0.00031,9,4.8,6
12.432,2735695.615,0.00069,-0.00038,-0.00031,9,4.8,6
12.45,2735695.634,-0.00053,0.00023,0.00031,9,4.8,6
12.47,2735695.653,0.0013,0.00084,0.00031,9,4.8,6
12.489,2735695.672,8e-05,-0.00038,-0.00038,9,4.8,6
12.507,2735695.691,0.00069,0.00023,-0.00038,9,4.8,6
12.527,2735695.71,-0.00053,-0.00038,-0.00038,9,4.8,6
12.546,2735695.729,8e-05,0.00023,-0.00038,9,4.8,6
12.564,2735695.748,8e-05,-0.00038,0.00023,9,4.8,6
12.587,2735695.767,0.00069,0.00023,-0.00038,9,4.8,6
12.605,2735695.786,8e-05,0.00023,0.00023,9,4.8,6
12.621,2735695.805,-0.00053,0.00023,0.00023,9,4.8,6
12.64,2735695.824,-0.00061,0.00023,-0.00038,9,4.8,6
12.659,2735695.843,0.0,0.00023,0.00023,9,4.8,6
12.68,2735695.862,0.0,0.00023,0.00023,9,4.8,6
12.698,2735695.881,0.0,0.00023,0.00023,9,4.8,6
12.716,2735695.9,0.00061,0.00084,-0.00038,9,4.8,6
12.737,2735695.919,-0.00061,0.00023,0.00023,9,4.8,6
12.755,2735695.938,0.00061,0.00023,-0.00038,9,4.8,6
12.776,2735695.957,-0.00061,0.00023,-0.00038,9,4.8,6
12.791,2735695.976,0.00061,0.00023,0.00023,9,4.8,6
12.811,2735695.995,0.0,0.00023,0.00023,9,4.8,6
12.832,2735696.014,0.00122,0.00023,-0.00038,9,4.8,6
12.852,2735696.033,-0.00122,0.00023,0.00023,9,4.8,6
12.873,2735696.052,0.00061,-0.00038,-0.00038,9,4.8,6
12.889,2735696.071,0.0,-0.00099,-0.00038,9,4.8,6
12.907,2735696.09,0.00061,0.00023,0.00023,9,4.8,6
12.926,2735696.109,0.0,0.00023,-0.00038,9,4.8,6
12.946,2735696.128,-0.00061,-0.00046,0.00023,9,4.8,6
12.964,2735696.147,0.0,-0.00046,0.00023,9,4.8,6
12.983,2735696.166,0.0,0.00015,0.00023,9,4.8,6
13.002,2735696.185,0.0,0.00015,0.00023,9,4.8,6
13.021,2735696.204,-0.00061,0.00015,-0.00038,9,4.8,6
13.04,2735696.223,0.00061,0.00015,-0.00038,9,4.8,6
13.06,2735696.242,-0.00061,-0.00046,-0.00038,9,4.8,6
13.079,2735696.261,0.00061,0.00015,0.00031,9,4.8,6
13.097,2735696.28,-0.0,-0.00046,0.00031,9,4.8,6
13.116,2735696.299,0.00122,0.00015,-0.00031,9,4.8,6
13.137,2735696.318,-0.00061,0.00015,0.00031,9,4.8,6
13.156,2735696.337,-0.0,0.00015,0.00031,9,4.8,6
13.175,2735696.357,-0.00061,-0.00046,0.00031,9,4.8,6
13.192,2735696.376,-0.0,0.00015,0.00031,9,4.8,6
13.211,2735696.395,-0.0,-0.00046,0.00031,9,4.8,6
13.232,2735696.414,-0.0,-0.00046,0.00031,9,4.8,6
13.25,2735696.433,-0.00061,0.00015,0.00031,9,4.8,6
13.271,2735696.452,-0.00061,0.00015,0.00031,9,4.8,6
13.289,2735696.471,0.00061,-0.00046,0.00031,9,4.8,6
13.307,2735696.49,-0.00061,-0.00046,-0.00031,9,4.8,6
13.325,2735696.509,0.00061,0.00015,-0.00031,9,4.8,6
13.345,2735696.528,-0.00061,0.00015,-0.00031,9,4.8,6
13.363,2735696.547,-0.0,0.00015,-0.00038,9,4.8,6
13.385,2735696.566,-0.00122,-0.00046,-0.00038,9,4.8,6
13.403,2735696.585,0.00061,0.00015,-0.00038,9,4.8,6
13.421,2735696.604,-0.00061,0.00015,-0.00038,9,4.8,6
13.44,2735696.623,0.00061,-0.00046,0.00023,9,4.8,6
13.459,2735696.642,-0.00061,0.00015,-0.00038,9,4.8,6
13.479,2735696.661,-0.0,0.00084,-0.00038,9,4.8,6
13.496,2735696.68,-0.00061,0.00023,0.00023,9,4.8,6
13.518,2735696.699,0.0,0.00023,0.00023,9,4.8,6
13.538,2735696.718,0.0,0.00023,0.00023,9,4.8,6
13.556,2735696.737,0.0,-0.00038,-0.00038,9,4.8,6
13.574,2735696.756,0.0,0.00023,-0.00038,9,4.8,6
13.591,2735696.775,-0.00061,0.00023,-0.00038,9,4.8,6
13.612,2735696.794,0.00069,0.00023,-0.00038,9,4.8,6
13.633,2735696.813,8e-05,-0.00038,0.00084,9,4.8,6
13.658,2735696.832,0.00069,0.00023,0.00023,9,4.8,6
13.668,2735696.851,8e-05,0.00023,0.00084,9,4.8,6
13.687,2735696.87,8e-05,0.00023,0.00023,9,4.8,6
13.706,2735696.889,-0.00053,-0.00038,0.00023,9,4.8,6
13.724,2735696.908,0.00069,-0.00038,-0.00038,9,4.8,6
13.744,2735696.927,8e-05,0.00023,-0.00038,9,4.8,6
13.763,2735696.946,0.00069,0.00023,-0.00038,9,4.8,6
13.785,2735696.965,-0.00053,0.00023,0.00031,9,4.8,6
13.803,2735696.984,8e-05,0.00023,0.00031,9,4.8,6
13.823,2735697.003,-0.00053,0.00023,0.00031,9,4.8,6
13.838,2735697.022,8e-05,-0.00038,0.00031,9,4.8,6
13.858,2735697.041,8e-05,0.00015,0.00031,9,4.8,6
13.877,2735697.06,-0.00053,0.00015,-0.00031,9,4.8,6
13.896,2735697.079,8e-05,0.00015,-0.00031,9,4.8,6
13.918,2735697.098,-0.00053,-0.00046,-0.00031,9,4.8,6
13.936,2735697.117,0.00069,0.00015,-0.00031,9,4.8,6
13.955,2735697.136,-0.00053,-0.00046,0.00031,9,4.8,6
13.975,2735697.155,0.00069,0.00015,-0.00031,9,4.8,6
13.991,2735697.174,-0.00053,-0.00046,-0.00031,9,4.8,6
14.011,2735697.193,8e-05,0.00015,0.00031,9,4.8,6
14.033,2735697.212,-0.00053,-0.00107,-0.00031,9,4.8,6
14.051,2735697.231,0.00069,-0.00046,0.00031,9,4.8,6
14.07,2735697.251,-0.00053,-0.00046,0.00031,9,4.8,6
14.087,2735697.27,-0.00053,0.00015,0.00031,9,4.8,6
14.105,2735697.289,-0.00053,0.00015,0.00084,9,4.8,6
14.124,2735697.308,8e-05,0.00015,-0.00038,9,4.8,6
14.143,2735697.327,8e-05,-0.00046,0.00023,9,4.8,6
14.163,2735697.346,8e-05,0.00015,0.00023,9,4.8,6
14.182,2735697.365,-0.00053,0.00015,0.00023,9,4.8,6
14.201,2735697.384,-0.00053,0.00015,0.00023,9,4.8,6
14.219,2735697.403,0.00069,0.00015,0.00023,9,4.8,6
14.239,2735697.422,8e-05,-0.00046,0.00023,9,4.8,6
14.258,2735697.441,0.00069,-0.00046,0.00023,9,4.8,6
14.277,2735697.46,8e-05,0.00023,0.00023,9,4.8,6
14.295,2735697.479,0.0013,0.00084,0.00023,9,4.8,6
14.318,2735697.498,-0.00053,0.00023,-0.00038,9,4.8,6
14.334,2735697.517,0.00069,-0.00038,-0.00038,9,4.8,6
14.357,2735697.536,-0.00053,0.00023,0.00023,9,4.8,6
14.375,2735697.555,8e-05,0.00023,0.00023,9,4.8,6
14.394,2735697.574,-0.00053,0.00023,0.00023,9,4.8,6
14.41,2735697.593,0.00069,0.00023,-0.00038,9,4.8,6
14.429,2735697.612,8e-05,0.00023,-0.00038,9,4.8,6
14.448,2735697.631,-0.00053,0.00023,-0.00038,9,4.8,6
14.467,2735697.65,-0.00053,-0.00038,-0.00038,9,4.8,6
14.486,2735697.669,-0.00053,-0.00038,-0.00038,9,4.8,6
14.504,2735697.688,8e-05,0.00023,0.00023,9,4.8,6
14.526,2735697.707,8e-05,-0.00038,0.00023,9,4.8,6
14.543,2735697.726,0.00069,0.00023,-0.00038,9,4.8,6
14.564,2735697.745,-0.00053,0.00023,0.00015,9,4.8,6
14.581,2735697.764,0.00069,0.00023,-0.00046,9,4.8,6
14.603,2735697.783,8e-05,0.00023,-0.00046,9,4.8,6
14.619,2735697.802,0.00069,-0.00038,0.00015,9,4.8,6
14.638,2735697.821,-0.00053,-0.00038,0.00015,9,4.8,6
14.657,2735697.84,0.00069,-0.00038,-0.00046,9,4.8,6
14.676,2735697.859,-0.00115,0.00023,-0.00046,9,4.8,6
14.695,2735697.878,8e-05,-0.00038,0.00015,9,4.8,6
14.716,2735697.897,8e-05,-0.00038,0.00015,9,4.8,6
14.734,2735697.916,-0.00053,-0.00038,0.00023,9,4.8,6
14.753,2735697.935,-0.00053,0.00023,-0.00038,9,4.8,6
14.771,2735697.954,-0.00053,0.00023,0.00023,9,4.8,6
14.799,2735697.973,8e-05,0.00023,0.00023,9,4.8,6
14.81,2735697.992,-0.00053,0.00023,-0.00038,9,4.8,6
14.845,2735698.011,8e-05,0.00023,-0.00038,9,4.8,6
14.847,2735698.03,-0.00053,-0.00038,0.00023,9,4.8,6
14.866,2735698.049,0.00069,-0.00038,0.00023,9,4.8,6
14.886,2735698.068,-0.00053,0.00023,0.00023,9,4.8,6
14.906,2735698.087,0.00069,0.00023,0.00023,9,4.8,6
14.923,2735698.106,-0.00053,-0.00038,0.00023,9,4.8,6
14.943,2735698.125,0.00069,0.00023,0.00023,9,4.8,6
14.965,2735698.145,-0.00115,0.00023,-0.00038,9,4.8,6
14.985,2735698.164,8e-05,-0.00038,-0.00038,9,4.8,6
14.999,2735698.183,-0.00053,-0.00038,-0.00031,9,4.8,6
15.019,2735698.202,8e-05,0.00023,-0.00031,9,4.8,6
15.039,2735698.221,-0.00053,-0.00038,0.00031,9,4.8,6
15.062,2735698.24,8e-05,-0.00038,0.00031,9,4.8,6
15.075,2735698.259,0.00076,0.00023,0.00031,9,4.8,6
15.095,2735698.278,0.00015,0.00023,0.00031,9,4.8,6
15.114,2735698.297,0.00015,0.00023,0.00031,9,4.8,6
15.134,2735698.316,0.00015,-0.00038,-0.00031,9,4.8,6
15.153,2735698.335,0.00015,-0.00038,-0.00031,9,4.8,6
15.171,2735698.354,0.00015,0.00023,-0.00031,9,4.8,6
15.191,2735698.373,0.00015,0.00023,-0.00031,9,4.8,6
15.208,2735698.392,-0.00046,-0.00038,-0.00038,9,4.8,6
15.229,2735698.411,0.00076,-0.00038,0.00023,9,4.8,6
15.248,2735698.43,-0.00046,0.00023,-0.00038,9,4.8,6
15.268,2735698.449,0.00076,0.00031,-0.00038,9,4.8,6
15.29,2735698.468,-0.00046,0.00031,-0.00038,9,4.8,6
15.308,2735698.487,0.00076,0.00031,-0.00038,9,4.8,6
15.324,2735698.506,0.00015,0.00031,0.00023,9,4.8,6
15.342,2735698.525,0.00015,0.00031,0.00023,9,4.8,6
15.362,2735698.544,0.00076,-0.00031,-0.00038,9,4.8,6
15.384,2735698.563,-0.00046,0.00031,-0.00038,9,4.8,6
15.399,2735698.582,0.00015,0.00031,0.00031,9,4.8,6
15.418,2735698.601,-0.00046,0.00031,0.00031,9,4.8,6
15.436,2735698.62,0.00015,0.00031,0.00031,9,4.8,6
15.459,2735698.639,-0.00046,0.00031,-0.00031,9,4.8,6
15.476,2735698.658,0.00076,-0.00031,-0.00031,9,4.8,6
15.495,2735698.677,-0.00046,-0.00038,-0.00031,9,4.8,6
15.514,2735698.696,0.00015,-0.00038,-0.00031,9,4.8,6
15.536,2735698.715,-0.00046,-0.00038,0.00031,9,4.8,6
15.552,2735698.734,0.00137,0.00023,0.00031,9,4.8,6
15.574,2735698.753,-0.00053,-0.00038,0.00031,9,4.8,6
15.591,2735698.772,8e-05,0.00023,-0.00031,9,4.8,6
15.612,2735698.791,-0.00053,0.00023,0.00031,9,4.8,6
15.635,2735698.81,0.00069,0.00023,-0.00031,9,4.8,6
15.662,2735698.829,8e-05,-0.00038,0.00031,9,4.8,6
15.667,2735698.848,8e-05,0.00023,0.00031,9,4.8,6
15.684,2735698.867,8e-05,0.00023,-0.00031,9,4.8,6
15.704,2735698.886,8e-05,0.00023,0.00031,9,4.8,6
15.722,2735698.905,0.00069,0.00023,-0.00031,9,4.8,6
15.741,2735698.924,-0.00053,0.00023,0.00038,9,4.8,6
15.762,2735698.943,0.00069,-0.00038,0.00038,9,4.8,6
15.781,2735698.962,-0.00053,-0.00038,-0.00023,9,4.8,6
15.798,2735698.981,8e-05,0.00023,-0.00023,9,4.8,6
15.817,2735699.0,-0.00115,-0.00038,0.00038,9,4.8,6
15.84,2735699.019,0.00069,0.00023,0.00038,9,4.8,6
15.859,2735699.039,-0.00053,-0.00038,0.00031,9,4.8,6
15.876,2735699.058,0.00069,0.00023,0.00031,9,4.8,6
15.893,2735699.077,-0.00053,-0.00038,0.00031,9,4.8,6
15.914,2735699.096,0.00069,0.00023,0.00031,9,4.8,6
15.937,2735699.115,8e-05,0.00023,-0.00031,9,4.8,6
15.957,2735699.134,0.00069,0.00023,-0.00031,9,4.8,6
15.97,2735699.153,8e-05,0.00023,-0.00031,9,4.8,6
15.989,2735699.172,-0.00053,0.00023,-0.00031,9,4.8,6
16.011,2735699.191,8e-05,0.00023,0.00092,9,4.8,6
16.028,2735699.21,-0.00115,-0.00038,0.00031,9,4.8,6
16.048,2735699.229,0.00069,-0.00038,-0.00031,9,4.8,6
16.074,2735699.248,-0.00053,0.00023,-0.00031,9,4.8,6
16.084,2735699.267,8e-05,0.00023,-0.00031,9,4.8,6
16.104,2735699.286,-0.00053,-0.00038,0.00031,9,4.8,6
16.122,2735699.305,0.00069,0.00023,0.00031,9,4.8,6
16.14,2735699.324,-0.00115,0.00023,0.00031,9,4.8,6
16.161,2735699.343,0.00069,0.00023,0.00023,9,4.8,6
16.18,2735699.362,8e-05,0.00023,-0.00038,9,4.8,6
16.198,2735699.381,0.00069,0.00023,-0.00038,9,4.8,6
16.219,2735699.4,-0.00053,0.00023,-0.00038,9,4.8,6
16.237,2735699.419,8e-05,0.00023,0.00023,9,4.8,6
16.259,2735699.438,-0.00053,-0.00038,-0.00038,9,4.8,6
16.277,2735699.457,0.00069,-0.00038,0.00023,9,4.8,6
16.294,2735699.476,8e-05,0.00023,0.00023,9,4.8,6
16.313,2735699.495,8e-05,-0.00038,-0.00038,9,4.8,6
16.335,2735699.514,-0.00053,0.00023,-0.00038,9,4.8,6
16.354,2735699.533,-0.00053,0.00023,0.00023,9,4.8,6
16.37,2735699.552,-0.00053,0.00023,0.00023,9,4.8,6
16.39,2735699.571,-0.00053,0.00023,0.00023,9,4.8,6
16.408,2735699.59,8e-05,0.00023,-0.00038,9,4.8,6
16.428,2735699.609,-0.00053,-0.00038,0.00023,9,4.8,6
16.446,2735699.628,0.00069,0.00023,0.00023,9,4.8,6
16.469,2735699.647,-0.00053,-0.00046,0.00023,9,4.8,6
16.488,2735699.666,8e-05,-0.00046,0.00023,9,4.8,6
16.503,2735699.685,-0.00053,0.00015,0.00023,9,4.8,6
16.521,2735699.704,0.00069,0.00076,0.00023,9,4.8,6
16.539,2735699.723,-0.00053,0.00015,-0.00038,9,4.8,6
16.56,2735699.742,0.00015,0.00015,0.00084,9,4.8,6
16.583,2735699.761,-0.00046,-0.00046,0.00023,9,4.8,6
16.598,2735699.78,0.00015,-0.00046,-0.00038,9,4.8,6
16.616,2735699.799,0.00015,0.00015,-0.00038,9,4.8,6
16.639,2735699.818,0.00015,-0.00046,-0.00038,9,4.8,6
16.659,2735699.837,0.00015,-0.00046,0.00023,9,4.8,6
16.675,2735699.856,-0.00107,0.00015,0.00023,9,4.8,6
16.695,2735699.875,0.00076,-0.00046,0.00023,9,4.8,6
16.713,2735699.894,-0.00046,-0.00046,0.00023,9,4.8,6
16.735,2735699.913,0.00015,0.00015,0.00023,9,4.8,6
16.75,2735699.933,0.00015,-0.00046,0.00023,9,4.8,6
16.773,2735699.952,0.00076,0.00015,0.00084,9,4.8,6
16.793,2735699.971,-0.00046,-0.00046,0.00023,9,4.8,6
16.81,2735699.99,0.00076,-0.00046,0.00023,9,4.8,6
16.826,2735700.009,0.00015,-0.00046,0.00023,9,4.8,6
16.845,2735700.028,0.00137,0.00015,-0.00038,9,4.8,6
16.864,2735700.047,-0.00046,-0.00038,-0.00038,9,4.8,6
16.883,2735700.066,0.00076,-0.00038,0.00023,9,4.8,6
16.903,2735700.085,0.00015,0.00023,0.00015,9,4.8,6
16.924,2735700.104,0.00015,-0.00038,0.00015,9,4.8,6
16.94,2735700.123,0.00015,-0.00038,0.00015,9,4.8,6
16.96,2735700.142,0.00015,-0.00038,-0.00046,9,4.8,6
16.979,2735700.161,0.00015,-0.00038,-0.00046,9,4.8,6
16.998,2735700.18,-0.00046,0.00023,-0.00046,9,4.8,6
17.021,2735700.199,-0.00046,0.00023,-0.00046,9,4.8,6
17.041,2735700.218,-0.00046,0.00023,0.00015,9,4.8,6
17.063,2735700.237,0.00015,0.00023,0.00015,9,4.8,6
17.074,2735700.256,-0.00046,-0.00031,0.00015,9,4.8,6
17.091,2735700.275,0.00076,0.00031,0.00015,9,4.8,6
17.112,2735700.294,0.00015,-0.00031,0.00015,9,4.8,6
17.13,2735700.313,0.00069,0.00031,0.00015,9,4.8,6
17.15,2735700.332,-0.00053,-0.00031,0.00015,9,4.8,6
17.169,2735700.351,0.00069,0.00031,0.00076,9,4.8,6
17.189,2735700.37,8e-05,0.00031,0.00015,9,4.8,6
17.211,2735700.389,0.00069,0.00031,0.00015,9,4.8,6
17.226,2735700.408,8e-05,-0.00031,0.00015,9,4.8,6
17.244,2735700.427,8e-05,0.00031,0.00076,9,4.8,6
17.262,2735700.446,0.00069,-0.00031,0.00015,9,4.8,6
17.284,2735700.465,8e-05,-0.00023,0.00015,9,4.8,6
17.302,2735700.484,0.00069,0.00038,-0.00046,9,4.8,6
17.319,2735700.503,-0.00115,-0.00023,0.00015,9,4.8,6
17.339,2735700.522,0.0,0.00038,0.00015,9,4.8,6
17.358,2735700.541,-0.00061,-0.00023,0.00015,9,4.8,6
17.378,2735700.56,0.0,0.00038,0.00015,9,4.8,6
17.397,2735700.579,-0.00122,0.00038,0.00015,9,4.8,6
17.417,2735700.598,0.00061,0.00038,0.00015,9,4.8,6
17.436,2735700.617,0.0,-0.00031,8e-05,9,4.8,6
17.455,2735700.636,0.00061,-0.00031,8e-05,9,4.8,6
17.475,2735700.655,-0.00061,0.00031,8e-05,9,4.8,6
17.495,2735700.674,0.00061,-0.00031,8e-05,9,4.8,6
17.51,2735700.693,0.0,-0.00031,-0.00053,9,4.8,6
17.53,2735700.712,-0.00061,-0.00031,-0.00053,9,4.8,6
17.549,2735700.731,0.00061,-0.00031,8e-05,9,4.8,6
17.57,2735700.75,0.0,0.00031,8e-05,9,4.8,6
17.589,2735700.769,0.00061,-0.00031,-0.00053,9,4.8,6
17.605,2735700.788,-0.00061,-0.00031,8e-05,9,4.8,6
17.625,2735700.807,0.00122,0.00031,8e-05,9,4.8,6
17.659,2735700.827,0.0,0.00031,0.00069,9,4.8,6
17.668,2735700.846,0.00122,0.00092,-0.00053,9,4.8,6
17.681,2735700.865,-0.00122,0.00031,-0.00115,9,4.8,6
17.7,2735700.884,0.00061,0.00031,-0.00053,9,4.8,6
17.718,2735700.903,-0.00061,-0.00031,8e-05,9,4.8,6
17.738,2735700.922,0.00061,0.00031,8e-05,9,4.8,6
17.758,2735700.941,-0.00061,-0.00031,-0.00053,9,4.8,6
17.777,2735700.96,-0.0,0.00031,8e-05,9,4.8,6
17.795,2735700.979,-0.00122,-0.00031,-0.00053,9,4.8,6
17.819,2735700.998,-0.0,-0.00031,8e-05,9,4.8,6
17.835,2735701.017,0.00061,-0.00031,8e-05,9,4.8,6
17.853,2735701.036,-0.0,0.00031,8e-05,9,4.8,6
17.871,2735701.055,-0.0,0.00031,8e-05,9,4.8,6
17.891,2735701.074,-0.00061,-0.00031,8e-05,9,4.8,6
17.909,2735701.093,0.00061,-0.00031,8e-05,9,4.8,6
17.928,2735701.112,-0.00122,-0.00031,8e-05,9,4.8,6
17.947,2735701.131,0.00061,0.00031,-0.00053,9,4.8,6
17.966,2735701.15,-0.00122,-0.00031,0.00015,9,4.8,6
17.986,2735701.169,0.00061,0.00031,0.00015,9,4.8,6
18.005,2735701.188,-0.00061,0.00031,0.00015,9,4.8,6
18.023,2735701.207,0.00061,-0.00031,0.00015,9,4.8,6
18.043,2735701.226,-0.00061,-0.00031,-0.00046,9,4.8,6
18.063,2735701.245,-0.0,0.00031,-0.00046,9,4.8,6
18.081,2735701.264,-0.00061,0.00031,0.00015,9,4.8,6
18.1,2735701.283,-0.0,0.00031,-0.00046,9,4.8,6
18.119,2735701.302,-0.00061,0.00031,0.00015,9,4.8,6
18.137,2735701.321,-0.00061,0.00031,0.00015,9,4.8,6
18.157,2735701.34,-0.0,0.00031,0.00015,9,4.8,6
18.176,2735701.359,0.0,-0.00031,-0.00046,9,4.8,6
18.196,2735701.378,0.00061,0.00031,-0.00046,9,4.8,6
18.214,2735701.397,-0.00061,0.00031,-0.00046,9,4.8,6
18.233,2735701.416,0.0,-0.00031,0.00023,9,4.8,6
18.253,2735701.435,-0.00115,-0.00031,-0.00038,9,4.8,6
18.273,2735701.454,0.00069,0.00031,0.00023,9,4.8,6
18.293,2735701.473,-0.00053,0.00031,0.00023,9,4.8,6
18.308,2735701.492,8e-05,0.00031,0.00023,9,4.8,6
18.328,2735701.511,-0.00053,0.00031,0.00023,9,4.8,6
18.349,2735701.53,0.00069,0.00031,-0.00038,9,4.8,6
18.37,2735701.549,-0.00115,0.00031,0.00023,9,4.8,6
18.385,2735701.568,0.00069,0.00031,0.00023,9,4.8,6
18.404,2735701.587,0.00015,-0.00031,0.00023,9,4.8,6
18.425,2735701.606,0.00076,0.00023,-0.00038,9,4.8,6
18.442,2735701.625,0.00015,0.00023,0.00023,9,4.8,6
18.464,2735701.644,0.00076,0.00023,0.00023,9,4.8,6
18.481,2735701.663,0.00076,0.00023,0.00084,9,4.8,6
18.5,2735701.682,-0.00046,-0.00038,0.00023,9,4.8,6
18.518,2735701.701,0.00015,0.00023,-0.00038,9,4.8,6
18.536,2735701.721,-0.00046,0.00023,-0.00038,9,4.8,6
18.556,2735701.74,0.00015,0.00023,-0.00038,9,4.8,6
18.574,2735701.759,-0.00046,-0.00038,0.00023,9,4.8,6
18.595,2735701.778,0.00076,0.00023,0.00023,9,4.8,6
18.614,2735701.797,0.00015,0.00023,0.00023,9,4.8,6
18.633,2735701.816,0.00076,0.00023,-0.00038,9,4.8,6
18.653,2735701.835,-0.00046,0.00023,0.00023,9,4.8,6
18.671,2735701.854,0.00076,0.00015,0.00023,9,4.8,6
18.689,2735701.873,0.00015,-0.00046,0.00023,9,4.8,6
18.708,2735701.892,0.00015,0.00015,0.00023,9,4.8,6
18.728,2735701.911,0.00015,0.00015,-0.00038,9,4.8,6
18.748,2735701.93,0.00015,0.00015,-0.00038,9,4.8,6
18.766,2735701.949,0.00015,-0.00046,-0.00038,9,4.8,6
18.785,2735701.968,0.00015,0.00015,0.00023,9,4.8,6
18.803,2735701.987,8e-05,-0.00046,0.00023,9,4.8,6
18.823,2735702.006,-0.00053,0.00015,0.00023,9,4.8,6
18.841,2735702.025,0.00069,0.00015,-0.00038,9,4.8,6
18.861,2735702.044,-0.00053,-0.00046,0.00023,9,4.8,6
18.879,2735702.063,0.00069,0.00015,0.00023,9,4.8,6
18.899,2735702.082,-0.00053,0.00015,0.00076,9,4.8,6
18.918,2735702.101,0.0013,0.00015,0.00015,9,4.8,6
18.936,2735702.12,-0.00053,-0.00046,-0.00046,9,4.8,6
18.957,2735702.139,0.00061,0.00015,-0.00046,9,4.8,6
18.976,2735702.158,0.0,0.00015,0.00015,9,4.8,6
18.993,2735702.177,0.00061,-0.00046,0.00015,9,4.8,6
19.014,2735702.196,-0.00061,-0.00046,0.00015,9,4.8,6
19.033,2735702.215,0.00061,0.00015,0.00015,9,4.8,6
19.051,2735702.234,0.00061,0.00015,0.00015,9,4.8,6
19.073,2735702.253,-0.0,0.00015,-0.00046,9,4.8,6
19.089,2735702.272,-0.0,0.00015,-0.00046,9,4.8,6
19.107,2735702.291,-0.0,0.00015,-0.00046,9,4.8,6
19.127,2735702.31,-0.0,0.00015,-0.00046,9,4.8,6
19.146,2735702.329,-0.0,0.00015,0.00015,9,4.8,6
19.165,2735702.348,0.00061,-0.00046,-0.00046,9,4.8,6
19.184,2735702.367,-0.0013,-0.00046,0.00015,9,4.8,6
19.203,2735702.386,0.00115,0.00015,-0.00046,9,4.8,6
19.223,2735702.405,-8e-05,-0.00046,-0.00046,9,4.8,6
19.24,2735702.424,0.00053,-0.00046,-0.00046,9,4.8,6
19.263,2735702.443,-0.00069,-0.00046,-0.00046,9,4.8,6
19.279,2735702.462,-8e-05,0.00015,-0.00046,9,4.8,6
19.298,2735702.481,-8e-05,-0.00046,0.00023,9,4.8,6
19.317,2735702.5,0.00053,0.00015,0.00023,9,4.8,6
19.337,2735702.519,-0.00069,0.00015,0.00023,9,4.8,6
19.356,2735702.538,-8e-05,0.00015,0.00023,9,4.8,6
19.375,2735702.557,-8e-05,0.00015,0.00023,9,4.8,6
19.394,2735702.576,-0.00069,0.00015,0.00023,9,4.8,6
19.413,2735702.595,0.00053,0.00015,-0.00038,9,4.8,6
19.432,2735702.615,-0.00069,0.00023,0.00023,9,4.8,6
19.45,2735702.634,0.00053,0.00023,0.00084,9,4.8,6
19.471,2735702.653,-0.00069,0.00023,0.00023,9,4.8,6
19.491,2735702.672,0.00053,0.00023,-0.00038,9,4.8,6
19.508,2735702.691,-0.00069,-0.00038,-0.00038,9,4.8,6
19.528,2735702.71,0.00053,-0.00038,-0.00038,9,4.8,6
19.547,2735702.729,-0.00069,-0.00099,-0.00038,9,4.8,6
19.569,2735702.748,0.00053,-0.00038,-0.00038,9,4.8,6
19.584,2735702.767,-0.00069,-0.00038,-0.00038,9,4.8,6
19.603,2735702.786,-8e-05,0.00023,0.00023,9,4.8,6
19.622,2735702.805,-0.00069,-0.00038,0.00023,9,4.8,6
19.646,2735702.824,0.00053,-0.00038,0.00092,9,4.8,6
19.659,2735702.843,-8e-05,0.00023,0.00031,9,4.8,6
19.679,2735702.862,-8e-05,0.00023,0.00092,9,4.8,6
19.698,2735702.881,-8e-05,0.00023,0.00031,9,4.8,6
19.716,2735702.9,-8e-05,-0.00038,0.00031,9,4.8,6
19.737,2735702.919,0.00053,-0.00099,0.00031,9,4.8,6
19.756,2735702.938,-8e-05,-0.00038,0.00031,9,4.8,6
19.78,2735702.957,0.00115,0.00023,-0.00031,9,4.8,6
19.794,2735702.976,-0.00061,0.00023,0.00031,9,4.8,6
19.812,2735702.995,-0.0,0.00023,0.00023,9,4.8,6
19.833,2735703.014,-0.00061,0.00023,-0.00038,9,4.8,6
19.851,2735703.033,-0.0,0.00084,0.00023,9,4.8,6
19.87,2735703.052,-0.0,0.00023,-0.00038,9,4.8,6
19.89,2735703.071,0.00061,0.00084,0.00023,9,4.8,6
19.907,2735703.09,-0.00061,-0.00031,0.00023,9,4.8,6
19.927,2735703.109,-0.0,0.00031,0.00084,9,4.8,6
19.946,2735703.128,-0.00061,0.00031,0.00023,9,4.8,6
19.965,2735703.147,-0.00061,-0.00031,-0.00038,9,4.8,6
19.987,2735703.166,-0.0,0.00031,-0.00038,9,4.8,6
20.003,2735703.185,0.00061,-0.00031,0.00023,9,4.8,6
20.021,2735703.204,-0.0,0.00031,0.00015,9,4.8,6
20.039,2735703.223,-0.00061,0.00031,0.00015,9,4.8,6
20.063,2735703.242,0.00061,0.00031,-0.00046,9,4.8,6
20.081,2735703.261,-0.00061,0.00031,-0.00046,9,4.8,6
20.097,2735703.28,0.0,0.00092,-0.00046,9,4.8,6
20.116,2735703.299,-0.00061,-0.00031,-0.00046,9,4.8,6
20.137,2735703.318,0.00061,0.00031,-0.00046,9,4.8,6
20.156,2735703.337,-0.00061,0.00023,0.00015,9,4.8,6
20.176,2735703.356,0.00061,0.00023,0.00015,9,4.8,6
20.192,2735703.375,0.0,0.00023,0.00015,9,4.8,6
20.213,2735703.394,0.00061,0.00023,-0.00046,9,4.8,6
20.234,2735703.413,-0.00061,-0.00038,0.00015,9,4.8,6
20.251,2735703.432,0.00061,-0.00038,0.00015,9,4.8,6
20.269,2735703.451,0.0,0.00023,0.00015,9,4.8,6
20.289,2735703.47,0.00061,0.00023,-0.00046,9,4.8,6
20.307,2735703.489,0.0,-0.00038,-0.00046,9,4.8,6
20.327,2735703.509,-0.00061,-0.00046,0.00015,9,4.8,6
20.345,2735703.528,0.0,-0.00046,0.00015,9,4.8,6
20.368,2735703.547,0.0,0.00015,-0.00046,9,4.8,6
20.387,2735703.566,0.00061,0.00015,0.00015,9,4.8,6
20.402,2735703.585,-0.00122,0.00015,0.00015,9,4.8,6
20.42,2735703.604,0.0,0.00076,-0.00046,9,4.8,6
20.439,2735703.623,-0.00061,0.00015,-0.00046,9,4.8,6
20.46,2735703.642,0.00061,0.00015,-0.00046,9,4.8,6
20.479,2735703.661,0.0,-0.00046,-0.00038,9,4.8,6
20.497,2735703.68,0.00061,-0.00046,0.00023,9,4.8,6
20.515,2735703.699,-0.00061,-0.00046,0.00023,9,4.8,6
20.538,2735703.718,0.0,0.00015,0.00023,9,4.8,6
20.557,2735703.737,-0.00061,-0.00046,0.00084,9,4.8,6
20.576,2735703.756,0.0,0.00015,-0.00038,9,4.8,6
20.594,2735703.775,0.0,-0.00046,0.00023,9,4.8,6
20.611,2735703.794,-0.00061,0.00015,-0.00038,9,4.8,6
20.631,2735703.813,-0.00061,0.00015,-0.00038,9,4.8,6
20.653,2735703.832,-0.00061,0.00015,0.00023,9,4.8,6
20.673,2735703.851,0.00061,-0.00046,0.00023,9,4.8,6
20.692,2735703.87,0.0,-0.00046,0.00023,9,4.8,6
20.706,2735703.889,0.00061,-0.00046,0.00023,9,4.8,6
20.724,2735703.908,0.0,-0.00046,-0.00038,9,4.8,6
20.744,2735703.927,0.00061,0.00076,-0.00038,9,4.8,6
20.765,2735703.946,-0.00061,0.00015,-0.00038,9,4.8,6
20.786,2735703.965,0.00122,-0.00046,-0.00038,9,4.8,6
20.802,2735703.984,-0.00061,-0.00046,-0.00038,9,4.8,6
20.82,2735704.003,8e-05,0.00015,0.00023,9,4.8,6
20.838,2735704.022,-0.00053,-0.00046,-0.00038,9,4.8,6
20.86,2735704.041,8e-05,-0.00038,0.00023,9,4.8,6
20.878,2735704.06,8e-05,0.00023,0.00023,9,4.8,6
20.898,2735704.079,8e-05,0.00023,0.00023,9,4.8,6
20.917,2735704.098,8e-05,-0.00038,0.00023,9,4.8,6
20.94,2735704.117,-0.00053,0.00084,0.00084,9,4.8,6
20.955,2735704.136,0.00069,0.00023,-0.00031,9,4.8,6
20.977,2735704.155,8e-05,-0.00038,-0.00031,9,4.8,6
20.991,2735704.174,0.00069,-0.00038,0.00031,9,4.8,6
21.012,2735704.193,8e-05,-0.00038,0.00023,9,4.8,6
21.035,2735704.212,8e-05,0.00023,-0.00038,9,4.8,6
21.053,2735704.231,-0.00115,-0.00038,-0.00038,9,4.8,6
21.07,2735704.25,0.00069,0.00023,-0.00038,9,4.8,6
21.087,2735704.269,-0.00053,0.00023,0.00023,9,4.8,6
21.105,2735704.288,0.00069,0.00023,0.00023,9,4.8,6
21.125,2735704.307,-0.00053,0.00023,0.00023,9,4.8,6
21.144,2735704.326,8e-05,0.00023,0.00023,9,4.8,6
21.163,2735704.345,-0.00053,-0.00031,-0.00038,9,4.8,6
21.186,2735704.364,0.00069,0.00031,0.00023,9,4.8,6
21.206,2735704.383,8e-05,0.00092,0.00084,9,4.8,6
21.219,2735704.403,8e-05,0.00031,0.00023,9,4.8,6
21.238,2735704.422,0.00069,0.00031,0.00023,9,4.8,6
21.26,2735704.441,0.0,0.00031,-0.00038,9,4.8,6
21.275,2735704.46,0.00122,0.00031,0.00023,9,4.8,6
21.296,2735704.479,0.0,0.00023,0.00023,9,4.8,6
21.317,2735704.498,0.00061,0.00023,0.00023,9,4.8,6
21.338,2735704.517,-0.00061,0.00023,0.00023,9,4.8,6
21.355,2735704.536,0.0,0.00023,0.00023,9,4.8,6
21.377,2735704.555,-0.00061,-0.00038,-0.00038,9,4.8,6
21.394,2735704.574,0.00061,0.00023,-0.00038,9,4.8,6
21.41,2735704.593,-0.00061,-0.00038,0.00023,9,4.8,6
21.431,2735704.612,0.0,0.00023,-0.00038,9,4.8,6
21.449,2735704.631,0.0,0.00084,0.00023,9,4.8,6
21.471,2735704.65,0.0,0.00023,0.00084,9,4.8,6
21.49,2735704.669,-0.0,0.00023,0.00023,9,4.8,6
21.506,2735704.688,-0.0,0.00076,0.00023,9,4.8,6
21.523,2735704.707,0.00061,-0.00046,0.00015,9,4.8,6
21.548,2735704.726,-0.0,0.00015,0.00015,9,4.8,6
21.566,2735704.745,-0.0,0.00015,0.00015,9,4.8,6
21.582,2735704.764,-0.0,0.00015,0.00015,9,4.8,6
21.6,2735704.783,-0.0,0.00015,0.00015,9,4.8,6
21.619,2735704.802,-0.0,-0.00046,0.00015,9,4.8,6
21.649,2735704.821,0.00061,0.00015,-0.00046,9,4.8,6
21.657,2735704.84,-0.00122,0.00015,-0.00046,9,4.8,6
21.676,2735704.859,0.00061,8e-05,-0.00107,9,4.8,6
21.695,2735704.878,-0.00122,8e-05,-0.00046,9,4.8,6
21.715,2735704.897,0.00061,8e-05,-0.00046,9,4.8,6
21.735,2735704.916,-8e-05,8e-05,-0.00046,9,4.8,6
21.755,2735704.935,0.00053,8e-05,-0.00046,9,4.8,6
21.775,2735704.954,-0.00069,8e-05,-0.00046,9,4.8,6
21.794,2735704.973,-8e-05,8e-05,-0.00046,9,4.8,6
21.809,2735704.992,-8e-05,-0.00053,-0.00046,9,4.8,6
21.83,2735705.011,-0.00069,8e-05,0.00015,9,4.8,6
21.848,2735705.03,-8e-05,8e-05,0.00015,9,4.8,6
21.869,2735705.049,-0.00069,-0.00053,-0.00046,9,4.8,6
21.886,2735705.068,0.00053,8e-05,-0.00046,9,4.8,6
21.904,2735705.087,-0.0,8e-05,0.00015,9,4.8,6
21.924,2735705.106,0.00061,0.00069,-0.00046,9,4.8,6
21.943,2735705.125,-0.00061,8e-05,-0.00046,9,4.8,6
21.962,2735705.144,0.00122,8e-05,0.00015,9,4.8,6
21.985,2735705.163,-0.00061,8e-05,0.00023,9,4.8,6
21.999,2735705.182,0.00061,8e-05,0.00023,9,4.8,6
22.017,2735705.201,-0.00061,-0.00053,0.00023,9,4.8,6
22.039,2735705.22,0.00122,8e-05,-0.00038,9,4.8,6
22.057,2735705.239,-0.0,-0.00053,0.00023,9,4.8,6
22.082,2735705.258,0.00061,8e-05,0.00023,9,4.8,6
22.094,2735705.277,-0.0,-0.00053,-0.00038,9,4.8,6
22.115,2735705.297,0.00061,8e-05,0.00031,9,4.8,6
22.14,2735705.316,0.0,-0.00053,0.00031,9,4.8,6
22.152,2735705.335,0.0,8e-05,-0.00031,9,4.8,6
22.17,2735705.354,-0.0,8e-05,-0.00031,9,4.8,6
22.191,2735705.373,-0.00061,-0.00053,0.00031,9,4.8,6
22.21,2735705.392,-0.0,8e-05,0.00031,9,4.8,6
22.228,2735705.411,-0.0,-0.00053,0.00031,9,4.8,6
22.247,2735705.43,0.00061,-0.00053,0.00031,9,4.8,6
22.271,2735705.449,-0.00061,-0.00053,-0.00023,9,4.8,6
22.284,2735705.468,-0.0,8e-05,-0.00023,9,4.8,6
22.303,2735705.487,-0.00061,8e-05,0.00038,9,4.8,6
22.323,2735705.506,-0.0,0.00069,-0.00023,9,4.8,6
22.341,2735705.525,-0.00061,8e-05,0.00038,9,4.8,6
22.363,2735705.544,0.00053,8e-05,-0.00031,9,4.8,6
22.381,2735705.563,-0.00069,8e-05,-0.00031,9,4.8,6
22.399,2735705.582,-8e-05,0.00015,0.00031,9,4.8,6
22.417,2735705.601,-0.00069,-0.00046,0.00031,9,4.8,6
22.436,2735705.62,-0.00069,0.00015,-0.00031,9,4.8,6
22.46,2735705.639,-0.00069,0.00015,-0.00092,9,4.8,6
22.475,2735705.658,-8e-05,-0.00046,-0.00031,9,4.8,6
22.493,2735705.677,0.00053,0.00015,0.00031,9,4.8,6
22.516,2735705.696,-8e-05,0.00015,0.00031,9,4.8,6
22.533,2735705.715,-8e-05,0.00076,-0.00031,9,4.8,6
22.556,2735705.734,-0.0013,0.00015,0.00031,9,4.8,6
22.572,2735705.753,0.00053,0.00015,0.00031,9,4.8,6
22.589,2735705.772,-0.00061,-0.00046,0.00092,9,4.8,6
22.608,2735705.791,0.00061,0.00015,0.00031,9,4.8,6
22.628,2735705.81,-0.0,-0.00046,0.00031,9,4.8,6
22.65,2735705.829,0.00061,0.00015,0.00031,9,4.8,6
22.669,2735705.848,-0.00061,-0.00046,0.00031,9,4.8,6
22.686,2735705.867,0.0,0.00015,0.00031,9,4.8,6
22.703,2735705.886,0.0,0.00015,0.00031,9,4.8,6
22.721,2735705.905,0.0,0.00015,0.00031,9,4.8,6
22.741,2735705.924,0.0,-0.00046,0.00031,9,4.8,6
22.761,2735705.943,-0.00053,0.00015,-0.00031,9,4.8,6
22.781,2735705.962,8e-05,0.00015,-0.00031,9,4.8,6
22.797,2735705.981,8e-05,0.00076,0.00023,9,4.8,6
22.818,2735706.0,8e-05,-0.00046,-0.00038,9,4.8,6
22.837,2735706.019,-0.00053,-0.00046,-0.00038,9,4.8,6
22.861,2735706.038,0.00069,-0.00046,0.00023,9,4.8,6
22.875,2735706.057,8e-05,0.00015,0.00023,9,4.8,6
22.892,2735706.076,0.00069,0.00015,-0.00038,9,4.8,6
22.914,2735706.095,-0.00053,0.00015,0.00023,9,4.8,6
22.936,2735706.114,8e-05,0.00015,-0.00038,9,4.8,6
22.951,2735706.133,-0.00053,-0.00046,0.00023,9,4.8,6
22.974,2735706.152,8e-05,0.00015,0.00023,9,4.8,6
22.989,2735706.171,8e-05,0.00015,0.00023,9,4.8,6
23.008,2735706.191,0.00069,0.00015,-0.00038,9,4.8,6
23.028,2735706.21,8e-05,0.00015,-0.00038,9,4.8,6
23.047,2735706.229,8e-05,0.00015,0.00023,9,4.8,6
23.066,2735706.248,0.00069,0.00015,0.00023,9,4.8,6
23.084,2735706.267,-0.00053,0.00015,-0.00038,9,4.8,6
23.104,2735706.286,0.00069,0.00015,0.00023,9,4.8,6
23.12,2735706.305,8e-05,0.00015,0.00023,9,4.8,6
23.139,2735706.324,0.00069,-0.00046,0.00023,9,4.8,6
23.16,2735706.343,-0.00115,0.00015,-0.00046,9,4.8,6
23.179,2735706.362,8e-05,0.00015,-0.00046,9,4.8,6
23.198,2735706.381,-0.00053,-0.00046,-0.00046,9,4.8,6
23.22,2735706.4,0.00069,0.00015,-0.00046,9,4.8,6
23.24,2735706.419,-0.00053,-0.00046,0.00015,9,4.8,6
23.261,2735706.438,8e-05,0.00015,-0.00038,9,4.8,6
23.275,2735706.457,8e-05,0.00076,0.00023,9,4.8,6
23.293,2735706.476,8e-05,0.00015,-0.00038,9,4.8,6
23.314,2735706.495,8e-05,0.00015,0.00023,9,4.8,6
23.337,2735706.514,8e-05,0.00015,-0.00038,9,4.8,6
23.355,2735706.533,-0.00053,0.00015,-0.00038,9,4.8,6
23.374,2735706.552,0.0,-0.00046,-0.00038,9,4.8,6
23.39,2735706.571,0.0,0.00015,-0.00038,9,4.8,6
23.407,2735706.59,-0.00061,0.00015,0.00023,9,4.8,6
23.427,2735706.609,0.0,0.00015,0.00023,9,4.8,6
23.446,2735706.628,-0.00061,0.00015,0.00023,9,4.8,6
23.468,2735706.647,0.00061,0.00015,0.00023,9,4.8,6
23.484,2735706.666,0.0,0.00015,0.00023,9,4.8,6
23.502,2735706.685,0.00122,-0.00046,0.00023,9,4.8,6
23.521,2735706.704,0.0,-0.00046,0.00031,9,4.8,6
23.541,2735706.723,0.0,-0.00046,-0.00031,9,4.8,6
23.56,2735706.742,-0.00061,8e-05,-0.00031,9,4.8,6
23.579,2735706.761,0.00061,8e-05,-0.00092,9,4.8,6
23.597,2735706.78,0.00061,8e-05,0.00031,9,4.8,6
23.619,2735706.799,0.00061,0.00069,0.00031,9,4.8,6
23.66,2735706.818,-0.00061,8e-05,-0.00031,9,4.8,6
23.661,2735706.837,-0.00061,8e-05,-0.00031,9,4.8,6
23.674,2735706.856,0.0,8e-05,-0.00031,9,4.8,6
23.691,2735706.875,0.0,8e-05,0.00031,9,4.8,6
23.712,2735706.894,0.0,8e-05,0.00031,9,4.8,6
23.73,2735706.913,-0.00061,8e-05,0.00031,9,4.8,6
23.75,2735706.932,0.00061,8e-05,0.00031,9,4.8,6
23.769,2735706.951,-0.00061,8e-05,0.00031,9,4.8,6
23.788,2735706.97,0.00061,0.00069,0.00031,9,4.8,6
23.807,2735706.989,0.0,-0.00053,-0.00031,9,4.8,6
23.826,2735707.008,0.00061,8e-05,-0.00031,9,4.8,6
23.845,2735707.027,-0.00061,8e-05,0.00031,9,4.8,6
23.867,2735707.046,0.00061,8e-05,-0.00031,9,4.8,6
23.887,2735707.065,0.0,-0.00053,0.00031,9,4.8,6
23.903,2735707.085,0.00061,8e-05,0.00031,9,4.8,6
23.92,2735707.104,0.0,8e-05,0.00031,9,4.8,6
23.94,2735707.123,0.0,8e-05,0.00031,9,4.8,6
23.959,2735707.142,-0.00061,8e-05,-0.00031,9,4.8,6
23.978,2735707.161,0.00061,-0.00053,0.00031,9,4.8,6
23.997,2735707.18,-0.0,8e-05,0.00031,9,4.8,6
24.02,2735707.199,-0.0,8e-05,0.00031,9,4.8,6
24.035,2735707.218,-0.0,8e-05,0.00031,9,4.8,6
24.059,2735707.237,-0.00061,8e-05,0.00031,9,4.8,6
24.074,2735707.256,0.00122,-0.00053,-0.00031,9,4.8,6
24.091,2735707.275,0.00061,8e-05,0.00031,9,4.8,6
24.111,2735707.294,0.00122,0.00069,0.00092,9,4.8,6
24.131,2735707.313,-0.00061,-0.00053,0.00031,9,4.8,6
24.15,2735707.332,0.00053,-0.00053,-0.00038,9,4.8,6
24.169,2735707.351,-0.00069,-0.00053,0.00023,9,4.8,6
24.188,2735707.37,0.00053,8e-05,0.00023,9,4.8,6
24.207,2735707.389,-8e-05,8e-05,0.00023,9,4.8,6
24.225,2735707.408,-8e-05,8e-05,0.00023,9,4.8,6
24.245,2735707.427,-0.00069,-0.00053,-0.00038,9,4.8,6
24.263,2735707.446,-8e-05,8e-05,-0.00038,9,4.8,6
24.283,2735707.465,0.00053,-0.00053,0.00023,9,4.8,6
24.302,2735707.484,-0.00069,8e-05,-0.00038,9,4.8,6
24.32,2735707.503,-0.00069,8e-05,-0.00038,9,4.8,6
24.338,2735707.522,-0.00069,-0.00053,0.00015,9,4.8,6
24.359,2735707.541,-8e-05,8e-05,0.00015,9,4.8,6
24.38,2735707.56,-0.00069,8e-05,0.00015,9,4.8,6
24.396,2735707.579,-8e-05,8e-05,-0.00046,9,4.8,6
24.416,2735707.598,-0.00069,-0.00053,-0.00046,9,4.8,6
24.436,2735707.617,0.00053,8e-05,-0.00046,9,4.8,6
24.457,2735707.636,-0.0013,0.00069,-0.00046,9,4.8,6
24.475,2735707.655,0.00053,0.00015,-0.00046,9,4.8,6
24.491,2735707.674,-8e-05,0.00015,-0.00046,9,4.8,6
24.511,2735707.693,0.00053,0.00015,0.00015,9,4.8,6
24.535,2735707.712,-8e-05,-0.00046,0.00015,9,4.8,6
24.55,2735707.731,0.00053,0.00015,-0.00046,9,4.8,6
24.572,2735707.75,-8e-05,0.00015,-0.00046,9,4.8,6
24.59,2735707.769,-0.00069,-0.00046,-0.00046,9,4.8,6
24.607,2735707.788,-8e-05,-0.00046,0.00015,9,4.8,6
24.625,2735707.807,-8e-05,-0.00046,-0.00046,9,4.8,6
24.645,2735707.826,0.00053,0.00015,-0.00046,9,4.8,6
24.664,2735707.845,-8e-05,-0.00046,0.00023,9,4.8,6
24.686,2735707.864,-0.0,0.00015,-0.00038,9,4.8,6
24.701,2735707.883,-0.00061,-0.00046,0.00023,9,4.8,6
24.72,2735707.902,0.00122,0.00015,0.00023,9,4.8,6
24.74,2735707.921,-0.00061,-0.00046,0.00023,9,4.8,6
24.76,2735707.94,0.0,0.00015,-0.00038,9,4.8,6
24.778,2735707.959,-0.00061,-0.00046,-0.00038,9,4.8,6
24.797,2735707.979,0.0,0.00015,0.00023,9,4.8,6
24.817,2735707.998,-0.00061,-0.00046,0.00031,9,4.8,6
24.839,2735708.017,0.00061,0.00015,0.00031,9,4.8,6
24.858,2735708.036,0.0,-0.00046,-0.00031,9,4.8,6
24.876,2735708.055,0.00061,0.00015,0.00031,9,4.8,6
24.894,2735708.074,0.00069,0.00023,0.00031,9,4.8,6
24.911,2735708.093,8e-05,0.00023,-0.00031,9,4.8,6
24.929,2735708.112,0.0013,-0.00038,0.00031,9,4.8,6
24.948,2735708.131,8e-05,-0.00038,0.00031,9,4.8,6
24.971,2735708.15,8e-05,0.00023,-0.00031,9,4.8,6
24.987,2735708.169,8e-05,0.00023,-0.00031,9,4.8,6
25.005,2735708.188,0.00061,-0.00038,0.00031,9,4.8,6
25.026,2735708.207,-0.00122,0.00023,0.00031,9,4.8,6
25.043,2735708.226,0.00061,0.00023,0.00031,9,4.8,6
25.067,2735708.245,-0.00061,0.00023,-0.00031,9,4.8,6
25.084,2735708.264,0.00122,-0.00038,-0.00031,9,4.8,6
25.1,2735708.283,-0.00061,0.00023,-0.00092,9,4.8,6
25.119,2735708.302,0.00061,-0.00038,0.00031,9,4.8,6
25.137,2735708.321,-0.0,0.00023,-0.00031,9,4.8,6
25.156,2735708.34,-0.0,-0.00038,-0.00031,9,4.8,6
25.176,2735708.359,-0.0,0.00023,-0.00031,9,4.8,6
25.196,2735708.378,-8e-05,0.00023,-0.00031,9,4.8,6
25.219,2735708.397,-8e-05,-0.00038,-0.00031,9,4.8,6
25.237,2735708.416,-8e-05,0.00023,0.00031,9,4.8,6
25.253,2735708.435,-8e-05,0.00023,-0.00031,9,4.8,6
25.275,2735708.454,-0.00069,0.00023,0.00031,9,4.8,6
25.291,2735708.473,-8e-05,0.00023,0.00031,9,4.8,6
25.31,2735708.492,-8e-05,0.00023,0.00031,9,4.8,6
25.329,2735708.511,0.00053,-0.00038,0.00031,9,4.8,6
25.351,2735708.53,-0.00069,0.00023,0.00031,9,4.8,6
25.367,2735708.549,0.00053,0.00023,-0.00031,9,4.8,6
25.39,2735708.568,-0.00069,-0.00038,-0.00031,9,4.8,6
25.404,2735708.587,0.00053,0.00084,0.00031,9,4.8,6
25.422,2735708.606,-0.00069,-0.00038,-0.00031,9,4.8,6
25.443,2735708.625,-8e-05,-0.00038,-0.00031,9,4.8,6
25.465,2735708.644,-0.00069,0.00023,0.00031,9,4.8,6
25.481,2735708.663,-8e-05,0.00023,0.00031,9,4.8,6
25.5,2735708.682,-0.00069,0.00023,0.00031,9,4.8,6
25.518,2735708.701,0.00053,0.00023,0.00031,9,4.8,6
25.538,2735708.72,-0.00069,0.00023,0.00031,9,4.8,6
25.559,2735708.739,-0.00069,-0.00038,-0.00031,9,4.8,6
25.575,2735708.758,-8e-05,-0.00038,-0.00031,9,4.8,6
25.596,2735708.777,-8e-05,0.00023,0.00031,9,4.8,6
25.614,2735708.796,0.00053,0.00023,0.00031,9,4.8,6
25.634,2735708.815,-0.0013,0.00023,0.00031,9,4.8,6
25.661,2735708.834,0.00053,0.00023,0.00031,9,4.8,6
25.671,2735708.853,0.00061,-0.00038,0.00031,9,4.8,6
25.69,2735708.873,0.00061,0.00023,0.00031,9,4.8,6
25.708,2735708.892,-0.00061,0.00023,-0.00031,9,4.8,6
25.728,2735708.911,-0.0,0.00076,-0.00031,9,4.8,6
25.747,2735708.93,0.0,0.00015,0.00031,9,4.8,6
25.771,2735708.949,0.0,-0.00046,0.00031,9,4.8,6
25.787,2735708.968,0.0,0.00015,0.00031,9,4.8,6
25.804,2735708.987,0.0,0.00015,0.00031,9,4.8,6
25.823,2735709.006,0.00061,-0.00046,0.00031,9,4.8,6
25.842,2735709.025,8e-05,0.00015,0.00031,9,4.8,6
25.866,2735709.044,0.00069,0.00015,0.00031,9,4.8,6
25.88,2735709.063,-0.00053,-0.00046,0.00023,9,4.8,6
25.899,2735709.082,0.00069,0.00015,0.00023,9,4.8,6
25.919,2735709.101,-0.00115,-0.00046,0.00023,9,4.8,6
25.939,2735709.12,8e-05,-0.00046,-0.00038,9,4.8,6
25.956,2735709.139,-0.00053,-0.00046,0.00023,9,4.8,6
25.979,2735709.158,8e-05,-0.00046,-0.00038,9,4.8,6
25.995,2735709.177,-0.00053,-0.00046,0.00084,9,4.8,6
26.014,2735709.196,0.00069,0.00015,0.00023,9,4.8,6
26.033,2735709.215,-0.00053,-0.00046,0.00023,9,4.8,6
26.055,2735709.234,0.00069,0.00015,0.00023,9,4.8,6
26.079,2735709.253,-0.00053,0.00015,0.00015,9,4.8,6
26.089,2735709.272,8e-05,0.00015,-0.00046,9,4.8,6
26.108,2735709.291,-0.00053,0.00015,-0.00046,9,4.8,6
26.128,2735709.31,8e-05,-0.00046,-0.00046,9,4.8,6
26.146,2735709.329,-0.00053,0.00015,-0.00046,9,4.8,6
26.165,2735709.348,-0.00053,0.00015,-0.00046,9,4.8,6
26.187,2735709.367,8e-05,0.00015,-0.00046,9,4.8,6
26.202,2735709.386,8e-05,0.00015,-0.00046,9,4.8,6
26.223,2735709.405,0.00069,0.00015,-0.00046,9,4.8,6
26.242,2735709.424,-0.00053,0.00015,-0.00046,9,4.8,6
26.262,2735709.443,8e-05,0.00023,0.00015,9,4.8,6
26.281,2735709.462,-0.00053,-0.00038,0.00015,9,4.8,6
26.299,2735709.481,8e-05,0.00023,0.00015,9,4.8,6
26.32,2735709.5,-0.00115,-0.00038,-0.00046,9,4.8,6
26.339,2735709.519,8e-05,0.00023,-0.00046,9,4.8,6
26.357,2735709.538,-0.00053,0.00023,-0.00046,9,4.8,6
26.377,2735709.557,0.00069,-0.00038,0.00015,9,4.8,6
26.393,2735709.576,8e-05,-0.00038,0.00015,9,4.8,6
26.413,2735709.595,8e-05,0.00023,0.00015,9,4.8,6
26.432,2735709.614,8e-05,0.00023,-0.00046,9,4.8,6
26.451,2735709.633,-0.00053,0.00084,-0.00107,9,4.8,6
26.47,2735709.652,0.00015,0.00084,0.00023,9,4.8,6
26.489,2735709.671,0.00015,0.00023,0.00023,9,4.8,6
26.507,2735709.69,0.00015,0.00023,-0.00038,9,4.8,6
26.53,2735709.709,0.00015,0.00023,-0.00038,9,4.8,6
26.548,2735709.728,0.00076,0.00023,0.00023,9,4.8,6
26.568,2735709.747,-0.00046,-0.00038,-0.00038,9,4.8,6
26.585,2735709.767,0.00015,0.00023,-0.00038,9,4.8,6
26.603,2735709.786,-0.00046,0.00023,0.00031,9,4.8,6
26.624,2735709.805,0.00015,0.00023,0.00031,9,4.8,6
26.645,2735709.824,0.00015,0.00015,0.00031,9,4.8,6
26.66,2735709.843,0.00076,0.00076,0.00031,9,4.8,6
26.682,2735709.862,-0.00046,0.00015,0.00031,9,4.8,6
26.699,2735709.881,0.00015,0.00015,0.00031,9,4.8,6
26.718,2735709.9,0.00015,0.00015,0.00092,9,4.8,6
26.739,2735709.919,0.00076,0.00015,0.00031,9,4.8,6
26.759,2735709.938,0.00015,-0.00046,0.00031,9,4.8,6
26.776,2735709.957,0.00015,0.00015,-0.00031,9,4.8,6
26.793,2735709.976,0.00015,0.00015,-0.00031,9,4.8,6
26.814,2735709.995,-0.00046,0.00015,-0.00031,9,4.8,6
26.835,2735710.014,0.00076,8e-05,0.00031,9,4.8,6
26.85,2735710.033,-0.00046,-0.00053,-0.00031,9,4.8,6
26.872,2735710.052,0.00076,8e-05,-0.00031,9,4.8,6
26.889,2735710.071,-0.00046,-0.00053,-0.00031,9,4.8,6
26.907,2735710.09,0.00076,8e-05,-0.00031,9,4.8,6
26.926,2735710.109,0.00015,8e-05,0.00031,9,4.8,6
26.949,2735710.128,0.00076,8e-05,0.00031,9,4.8,6
26.964,2735710.147,-0.00115,8e-05,0.00031,9,4.8,6
26.987,2735710.166,8e-05,-0.00053,0.00031,9,4.8,6
27.003,2735710.185,-0.00053,8e-05,0.00031,9,4.8,6
27.02,2735710.204,8e-05,8e-05,-0.00031,9,4.8,6
27.041,2735710.223,8e-05,-0.00053,-0.00031,9,4.8,6
27.061,2735710.242,8e-05,-0.00053,-0.00092,9,4.8,6
27.084,2735710.261,0.00069,-0.00053,-0.00031,9,4.8,6
27.097,2735710.28,8e-05,8e-05,-0.00031,9,4.8,6
27.117,2735710.299,0.00069,8e-05,0.00031,9,4.8,6
27.137,2735710.318,-0.00053,8e-05,0.00023,9,4.8,6
27.156,2735710.337,0.00069,-0.00053,-0.00038,9,4.8,6
27.174,2735710.356,-0.00053,8e-05,-0.00038,9,4.8,6
27.191,2735710.375,8e-05,-0.00053,0.00023,9,4.8,6
27.213,2735710.394,-0.00061,-0.00053,-0.00038,9,4.8,6
27.235,2735710.413,0.0,8e-05,-0.00038,9,4.8,6
27.25,2735710.432,-0.00122,-0.00053,0.00023,9,4.8,6
27.27,2735710.451,0.00122,8e-05,0.00023,9,4.8,6
27.289,2735710.47,0.0,-0.00053,-0.00031,9,4.8,6
27.308,2735710.489,0.00061,8e-05,-0.00031,9,4.8,6
27.325,2735710.508,0.0,-0.00046,-0.00031,9,4.8,6
27.344,2735710.527,0.00061,-0.00046,0.00031,9,4.8,6
27.366,2735710.546,0.0,-0.00046,0.00031,9,4.8,6
27.383,2735710.565,0.0,0.00015,0.00031,9,4.8,6
27.401,2735710.584,0.00061,0.00015,0.00031,9,4.8,6
27.42,2735710.603,0.0,0.00015,0.00031,9,4.8,6
27.439,2735710.622,0.00061,0.00015,0.00031,9,4.8,6
27.459,2735710.641,-0.00061,-0.00038,0.00031,9,4.8,6
27.478,2735710.661,0.00061,0.00023,-0.00031,9,4.8,6
27.496,2735710.68,0.0,0.00023,-0.00031,9,4.8,6
27.516,2735710.699,0.00061,0.00084,0.00092,9,4.8,6
27.54,2735710.718,-0.00061,0.00023,0.00031,9,4.8,6
27.555,2735710.737,-0.0,0.00023,0.00031,9,4.8,6
27.576,2735710.756,-0.00061,-0.00038,-0.00031,9,4.8,6
27.592,2735710.775,-0.0,0.00023,-0.00031,9,4.8,6
27.612,2735710.794,-0.00122,0.00023,-0.00031,9,4.8,6
27.635,2735710.813,-0.0,0.00023,-0.00031,9,4.8,6
27.66,2735710.832,-0.0,-0.00038,-0.00031,9,4.8,6
27.669,2735710.851,-0.0,0.00023,-0.00031,9,4.8,6
27.687,2735710.87,-0.0,-0.00038,-0.00031,9,4.8,6
27.706,2735710.889,-0.00061,0.00023,-0.00031,9,4.8,6
27.724,2735710.908,-0.0,0.00023,-0.00031,9,4.8,6
27.744,2735710.927,-0.0,0.00023,0.00031,9,4.8,6
27.764,2735710.946,-0.0,0.00023,0.00031,9,4.8,6
27.787,2735710.965,-0.00061,0.00023,0.00031,9,4.8,6
27.801,2735710.984,0.00061,0.00023,0.00092,9,4.8,6
27.82,2735711.003,-0.00061,-0.00038,0.00031,9,4.8,6
27.839,2735711.022,0.00061,0.00023,0.00031,9,4.8,6
27.86,2735711.041,-0.0,-0.00038,0.00092,9,4.8,6
27.878,2735711.06,0.00061,-0.00038,0.00031,9,4.8,6
27.895,2735711.079,-0.00061,0.00023,-0.00031,9,4.8,6
27.919,2735711.098,-0.0,0.00023,-0.00031,9,4.8,6
27.939,2735711.117,-0.00061,0.00023,-0.00031,9,4.8,6
27.956,2735711.136,0.00061,0.00023,-0.00031,9,4.8,6
27.978,2735711.155,-0.0,-0.00038,-0.00031,9,4.8,6
27.993,2735711.174,0.0,-0.00046,-0.00099,9,4.8,6
28.01,2735711.193,-0.00061,-0.00046,-0.00038,9,4.8,6
28.031,2735711.212,0.0,0.00015,-0.00038,9,4.8,6
28.053,2735711.231,0.00061,0.00015,-0.00038,9,4.8,6
28.068,2735711.25,0.0,0.00015,0.00023,9,4.8,6
28.087,2735711.269,0.00061,0.00015,0.00084,9,4.8,6
28.106,2735711.288,-0.00053,0.00015,0.00023,9,4.8,6
28.124,2735711.307,8e-05,0.00015,-0.00092,9,4.8,6
28.143,2735711.326,8e-05,-0.00046,-0.00092,9,4.8,6
28.163,2735711.345,0.00069,0.00015,-0.00031,9,4.8,6
28.183,2735711.364,-0.00053,0.00015,-0.00031,9,4.8,6
28.201,2735711.383,8e-05,0.00015,-0.00031,9,4.8,6
28.219,2735711.402,-0.00053,0.00015,-0.00031,9,4.8,6
28.24,2735711.421,0.00069,0.00076,-0.00031,9,4.8,6
28.26,2735711.44,8e-05,0.00076,0.00092,9,4.8,6
28.278,2735711.459,8e-05,0.00015,0.00031,9,4.8,6
28.295,2735711.478,0.00069,-0.00046,0.00031,9,4.8,6
28.316,2735711.497,-0.00053,-0.00046,0.00031,9,4.8,6
28.337,2735711.516,0.00069,0.00015,-0.00031,9,4.8,6
28.354,2735711.535,-0.00053,0.00015,0.00031,9,4.8,6
28.375,2735711.555,0.00069,0.00015,-0.00031,9,4.8,6
28.394,2735711.574,-0.00053,0.00015,0.00031,9,4.8,6
28.411,2735711.593,0.0,0.00015,0.00031,9,4.8,6
28.43,2735711.612,-0.00061,-0.00046,0.00038,9,4.8,6
28.449,2735711.631,0.00061,-0.00046,-0.00023,9,4.8,6
28.467,2735711.65,-0.00061,-0.00046,-0.00023,9,4.8,6
28.491,2735711.669,0.00061,0.00076,-0.00084,9,4.8,6
28.506,2735711.688,0.0,0.00015,-0.00023,9,4.8,6
28.523,2735711.707,0.00061,0.00015,0.00038,9,4.8,6
28.544,2735711.726,-0.00061,0.00015,0.00038,9,4.8,6
28.566,2735711.745,0.00061,0.00015,-0.00023,9,4.8,6
28.585,2735711.764,0.0,0.00015,-0.00023,9,4.8,6
28.6,2735711.783,0.0,-0.00046,-0.00023,9,4.8,6
28.619,2735711.802,0.0,0.00015,0.00038,9,4.8,6
28.639,2735711.821,0.0,-0.00046,0.00038,9,4.8,6
28.659,2735711.84,0.00061,8e-05,0.00038,9,4.8,6
28.678,2735711.859,-0.0,8e-05,0.00099,9,4.8,6
28.695,2735711.878,0.00061,8e-05,0.00038,9,4.8,6
28.719,2735711.897,-0.00061,-0.00053,0.00038,9,4.8,6
28.739,2735711.916,-0.0,8e-05,-0.00023,9,4.8,6
28.757,2735711.935,-0.00061,8e-05,0.00038,9,4.8,6
28.777,2735711.954,0.00122,8e-05,0.00038,9,4.8,6
28.793,2735711.973,-0.00061,8e-05,0.00038,9,4.8,6
28.809,2735711.992,-0.0,8e-05,-0.00023,9,4.8,6
28.832,2735712.011,-0.0,8e-05,-0.00084,9,4.8,6
28.848,2735712.03,-0.0,8e-05,-0.00031,9,4.8,6
28.871,2735712.049,-0.00061,-0.00053,-0.00031,9,4.8,6
28.885,2735712.068,-0.0,8e-05,0.00031,9,4.8,6
28.904,2735712.087,-0.0,8e-05,0.00031,9,4.8,6
28.923,2735712.106,-0.00061,-0.00053,0.00031,9,4.8,6
28.944,2735712.125,-0.0,8e-05,-0.00031,9,4.8,6
28.963,2735712.144,-0.00061,-0.00053,-0.00031,9,4.8,6
28.986,2735712.163,-0.0,8e-05,-0.00031,9,4.8,6
28.998,2735712.182,-0.00122,0.00015,0.00031,9,4.8,6
29.018,2735712.201,0.00061,0.00015,-0.00031,9,4.8,6
29.039,2735712.22,-0.0,0.00015,-0.00031,9,4.8,6
29.06,2735712.239,0.00122,0.00015,0.00031,9,4.8,6
29.083,2735712.258,-0.00061,-0.00046,0.00031,9,4.8,6
29.095,2735712.277,-0.0,0.00015,0.00031,9,4.8,6
29.114,2735712.296,-0.0,0.00015,-0.00031,9,4.8,6
29.133,2735712.315,0.00061,0.00015,0.00031,9,4.8,6
29.152,2735712.334,-0.00061,-0.00046,0.00031,9,4.8,6
29.171,2735712.353,-0.0,-0.00046,-0.00031,9,4.8,6
29.191,2735712.372,-0.0,0.00015,-0.00092,9,4.8,6
29.208,2735712.391,0.00061,0.00015,0.00031,9,4.8,6
29.227,2735712.41,0.00061,-0.00046,0.00031,9,4.8,6
29.246,2735712.43,0.0,-0.00046,0.00092,9,4.8,6
29.269,2735712.449,0.00061,-0.00046,0.00031,9,4.8,6
29.285,2735712.468,-0.00061,-0.00046,-0.00031,9,4.8,6
29.304,2735712.487,0.00061,0.00015,-0.00031,9,4.8,6
29.325,2735712.506,-0.00061,-0.00046,-0.00031,9,4.8,6
29.342,2735712.525,0.00061,-0.00046,-0.00031,9,4.8,6
29.364,2735712.544,0.0,0.00015,0.00092,9,4.8,6
29.383,2735712.563,0.00061,0.00015,0.00092,9,4.8,6
29.399,2735712.582,0.0,0.00015,0.00031,9,4.8,6
29.416,2735712.601,0.00061,0.00015,0.00031,9,4.8,6
29.436,2735712.62,0.0,-0.00046,0.00092,9,4.8,6
29.457,2735712.639,0.00061,0.00015,-0.00031,9,4.8,6
29.477,2735712.658,-0.00061,0.00015,-0.00031,9,4.8,6
29.493,2735712.677,0.00061,0.00023,-0.00031,9,4.8,6
29.514,2735712.696,0.0,0.00023,0.00031,9,4.8,6
29.536,2735712.715,0.0,-0.00038,0.00031,9,4.8,6
29.551,2735712.734,-0.0,-0.00038,0.00031,9,4.8,6
29.571,2735712.753,0.00061,0.00023,0.00031,9,4.8,6
29.592,2735712.772,0.00061,0.00084,-0.00038,9,4.8,6
29.608,2735712.791,-0.0,0.00023,-0.00038,9,4.8,6
29.632,2735712.81,0.00053,0.00023,-0.00038,9,4.8,6
29.646,2735712.829,-0.00069,0.00023,-0.00038,9,4.8,6
29.664,2735712.848,0.00053,0.00023,-0.00038,9,4.8,6
29.685,2735712.867,-8e-05,0.00023,0.00023,9,4.8,6
29.704,2735712.886,0.00053,0.00084,0.00023,9,4.8,6
29.722,2735712.905,-0.00069,-0.00038,0.00023,9,4.8,6
29.741,2735712.924,-8e-05,0.00023,0.00023,9,4.8,6
29.763,2735712.943,-0.00076,-0.00038,0.00023,9,4.8,6
29.78,2735712.962,-0.00015,0.00023,0.00023,9,4.8,6
29.797,2735712.981,-0.00015,0.00023,0.00023,9,4.8,6
29.819,2735713.0,-0.00015,0.00023,0.00023,9,4.8,6
29.84,2735713.019,-0.00015,0.00023,0.00023,9,4.8,6
29.859,2735713.038,-0.00015,-0.00038,0.00023,9,4.8,6
29.874,2735713.057,0.00046,-0.00038,-0.00038,9,4.8,6
29.892,2735713.076,-0.00076,0.00023,-0.00038,9,4.8,6
29.913,2735713.095,0.00046,0.00084,-0.00038,9,4.8,6
29.937,2735713.114,-0.00076,0.00015,0.00015,9,4.8,6
29.954,2735713.133,-0.00015,0.00076,0.00015,9,4.8,6
29.97,2735713.152,-0.00137,0.00015,0.00076,9,4.8,6
29.993,2735713.171,0.00046,0.00015,-0.00046,9,4.8,6
30.006,2735713.19,-0.00076,-0.00046,-0.00046,9,4.8,6
30.027,2735713.209,0.00046,0.00015,0.00015,9,4.8,6
30.046,2735713.228,-0.00015,-0.00046,0.00015,9,4.8,6
30.071,2735713.247,0.00046,0.00015,-0.00046,9,4.8,6
30.09,2735713.266,-0.00015,-0.00046,0.00015,9,4.8,6
30.103,2735713.285,0.00046,-0.00046,0.00023,9,4.8,6
30.122,2735713.304,-8e-05,-0.00053,0.00023,9,4.8,6
30.142,2735713.324,-8e-05,-0.00053,0.00023,9,4.8,6
30.159,2735713.343,-8e-05,-0.00053,0.00023,9,4.8,6
30.178,2735713.362,-8e-05,-0.00053,-0.00038,9,4.8,6
30.197,2735713.381,0.00053,8e-05,-0.00038,9,4.8,6
30.215,2735713.4,-8e-05,8e-05,-0.00099,9,4.8,6
30.236,2735713.419,0.00053,8e-05,-0.00046,9,4.8,6
30.259,2735713.438,-0.00069,8e-05,0.00015,9,4.8,6
30.275,2735713.457,0.00053,8e-05,0.00076,9,4.8,6
30.292,2735713.476,-0.0013,-0.00053,0.00015,9,4.8,6
30.313,2735713.495,-8e-05,8e-05,0.00015,9,4.8,6
30.332,2735713.514,-0.0,0.00015,-0.00046,9,4.8,6
30.355,2735713.533,0.00122,0.00015,0.00015,9,4.8,6
30.373,2735713.552,-0.0,0.00015,0.00015,9,4.8,6
30.389,2735713.571,0.00061,0.00015,0.00023,9,4.8,6
30.41,2735713.59,-0.0,0.00015,0.00023,9,4.8,6
30.427,2735713.609,0.00061,-0.00046,0.00023,9,4.8,6
30.446,2735713.628,-0.0,-0.00046,0.00023,9,4.8,6
30.468,2735713.647,-0.0,0.00015,-0.00038,9,4.8,6
30.484,2735713.666,0.00061,0.00015,0.00023,9,4.8,6
30.503,2735713.685,-0.00061,-0.00046,0.00023,9,4.8,6
30.52,2735713.704,0.00053,-0.00046,0.00023,9,4.8,6
30.54,2735713.723,-0.00069,-0.00046,-0.00038,9,4.8,6
30.559,2735713.742,0.00053,0.00015,0.00023,9,4.8,6
30.579,2735713.761,-0.00069,0.00023,0.00023,9,4.8,6
30.597,2735713.78,-8e-05,0.00023,-0.00038,9,4.8,6
30.616,2735713.799,-0.00069,-0.00038,-0.00038,9,4.8,6
30.639,2735713.818,0.00053,0.00023,0.00023,9,4.8,6
30.658,2735713.837,-0.00069,-0.00038,0.00023,9,4.8,6
30.674,2735713.856,-8e-05,0.00023,0.00076,9,4.8,6
30.695,2735713.875,-8e-05,-0.00038,0.00076,9,4.8,6
30.713,2735713.894,0.00053,-0.00038,0.00015,9,4.8,6
30.733,2735713.913,-8e-05,0.00023,-0.00107,9,4.8,6
30.754,2735713.932,-8e-05,0.00023,-0.00107,9,4.8,6
30.769,2735713.951,0.00053,0.00023,-0.00046,9,4.8,6
30.788,2735713.97,-0.00069,0.00023,0.00015,9,4.8,6
30.811,2735713.989,-8e-05,0.00023,-0.00046,9,4.8,6
30.827,2735714.008,-8e-05,0.00023,-0.00046,9,4.8,6
30.844,2735714.027,0.00053,0.00023,0.00015,9,4.8,6
30.867,2735714.046,-0.00069,-0.00038,0.00015,9,4.8,6
30.884,2735714.065,-8e-05,0.00023,0.00015,9,4.8,6
30.903,2735714.084,-0.00069,0.00023,0.00015,9,4.8,6
30.92,2735714.103,0.00053,-0.00038,-0.00046,9,4.8,6
30.939,2735714.122,-0.0013,-0.00038,0.00076,9,4.8,6
30.96,2735714.141,0.00053,-0.00038,-0.00046,9,4.8,6
30.979,2735714.16,-8e-05,0.00084,-0.00046,9,4.8,6
30.997,2735714.179,-0.00069,0.00023,0.00015,9,4.8,6
31.015,2735714.198,-0.00069,0.00084,-0.00046,9,4.8,6
31.04,2735714.218,-8e-05,0.00023,-0.00046,9,4.8,6
31.059,2735714.237,-8e-05,0.00023,-0.00107,9,4.8,6
31.082,2735714.256,0.00053,-0.00038,0.00023,9,4.8,6
31.09,2735714.275,-8e-05,0.00023,-0.00038,9,4.8,6
31.111,2735714.294,-0.00061,0.00023,0.00023,9,4.8,6
31.13,2735714.313,0.00061,-0.00038,-0.00038,9,4.8,6
31.149,2735714.332,-0.00061,-0.00038,-0.00038,9,4.8,6
31.168,2735714.351,-0.0,0.00023,0.00023,9,4.8,6
31.187,2735714.37,-0.00061,-0.00038,0.00023,9,4.8,6
31.206,2735714.389,0.00061,0.00023,-0.00038,9,4.8,6
31.225,2735714.408,0.0,-0.00038,0.00023,9,4.8,6
31.247,2735714.427,0.00061,-0.00038,0.00023,9,4.8,6
31.264,2735714.446,-0.00061,-0.00038,-0.00038,9,4.8,6
31.283,2735714.465,0.0,0.00015,-0.00038,9,4.8,6
31.302,2735714.484,-0.00122,-0.00046,0.00031,9,4.8,6
31.319,2735714.503,8e-05,-0.00046,0.00031,9,4.8,6
31.34,2735714.522,8e-05,0.00015,0.00031,9,4.8,6
31.36,2735714.541,0.00069,-0.00046,0.00031,9,4.8,6
31.378,2735714.56,0.00069,0.00015,0.00031,9,4.8,6
31.396,2735714.579,-0.00053,0.00015,0.00031,9,4.8,6
31.418,2735714.598,0.00069,0.00015,0.00092,9,4.8,6
31.435,2735714.617,8e-05,-0.00046,0.00031,9,4.8,6
31.459,2735714.636,0.00069,-0.00038,-0.00031,9,4.8,6
31.476,2735714.655,-0.00053,-0.00038,0.00031,9,4.8,6
31.493,2735714.674,0.00069,0.00023,-0.00031,9,4.8,6
31.511,2735714.693,-0.00115,-0.00038,0.00031,9,4.8,6
31.529,2735714.712,8e-05,0.00023,-0.00031,9,4.8,6
31.549,2735714.731,-0.00053,0.00023,0.00031,9,4.8,6
31.571,2735714.75,0.00069,0.00084,0.00031,9,4.8,6
31.59,2735714.769,-0.00053,0.00023,-0.00031,9,4.8,6
31.609,2735714.788,0.00069,-0.00038,-0.00031,9,4.8,6
31.624,2735714.807,8e-05,-0.00038,-0.00031,9,4.8,6
31.658,2735714.826,8e-05,-0.00038,-0.00031,9,4.8,6
31.665,2735714.845,8e-05,0.00023,-0.00031,9,4.8,6
31.681,2735714.864,8e-05,0.00023,0.00031,9,4.8,6
31.701,2735714.883,8e-05,0.00023,0.00023,9,4.8,6
31.719,2735714.902,8e-05,-0.00038,0.00023,9,4.8,6
31.737,2735714.921,0.00069,-0.00031,0.00023,9,4.8,6
31.757,2735714.94,-0.00053,-0.00031,-0.00038,9,4.8,6
31.776,2735714.959,0.00069,0.00031,0.00023,9,4.8,6
31.795,2735714.978,-0.00053,-0.00092,0.00023,9,4.8,6
31.821,2735714.997,0.0013,-0.00031,0.00023,9,4.8,6
31.839,2735715.016,-0.00115,0.00031,0.00023,9,4.8,6
31.853,2735715.035,0.0,0.00031,0.00023,9,4.8,6
31.872,2735715.054,-0.00122,0.00031,-0.00038,9,4.8,6
31.891,2735715.073,0.00061,0.00031,-0.00038,9,4.8,6
31.909,2735715.092,-0.00061,-0.00031,-0.00038,9,4.8,6
31.928,2735715.112,0.0,0.00031,-0.00038,9,4.8,6
31.949,2735715.131,-0.00061,0.00031,0.00023,9,4.8,6
31.967,2735715.15,-0.00061,0.00031,0.00023,9,4.8,6
31.99,2735715.169,-0.00061,-0.00031,-0.00038,9,4.8,6
32.007,2735715.188,0.0,-0.00031,-0.00038,9,4.8,6
32.025,2735715.207,0.0,-0.00031,0.00023,9,4.8,6
32.047,2735715.226,-0.00061,-0.00031,0.00023,9,4.8,6
32.062,2735715.245,0.00061,0.00031,0.00023,9,4.8,6
32.083,2735715.264,-0.00061,-0.00031,-0.00038,9,4.8,6
32.099,2735715.283,0.0013,0.00031,-0.00038,9,4.8,6
32.117,2735715.302,-0.00053,0.00031,-0.00038,9,4.8,6
32.136,2735715.321,0.00069,0.00031,-0.00038,9,4.8,6
32.156,2735715.34,-0.00053,0.00031,-0.00038,9,4.8,6
32.175,2735715.359,0.00069,0.00092,-0.00038,9,4.8,6
32.195,2735715.378,-0.00115,-0.00031,-0.00038,9,4.8,6
32.215,2735715.397,-0.00053,0.00031,-0.00038,9,4.8,6
32.237,2735715.416,-0.00053,0.00031,-0.00038,9,4.8,6
32.258,2735715.435,-0.00053,0.00031,0.00023,9,4.8,6
32.276,2735715.454,8e-05,-0.00031,0.00023,9,4.8,6
32.29,2735715.473,8e-05,-0.00031,0.00031,9,4.8,6
32.311,2735715.492,8e-05,-0.00031,-0.00031,9,4.8,6
32.329,2735715.511,8e-05,-0.00031,-0.00031,9,4.8,6
32.348,2735715.53,0.00015,-0.00031,0.00031,9,4.8,6
32.366,2735715.549,0.00015,0.00031,0.00031,9,4.8,6
32.386,2735715.568,0.00015,0.00031,0.00092,9,4.8,6
32.405,2735715.587,-0.00046,-0.00031,-0.00092,9,4.8,6
32.423,2735715.606,0.00015,0.00031,-0.00031,9,4.8,6
32.442,2735715.625,0.00015,0.00023,-0.00031,9,4.8,6
32.462,2735715.644,0.00076,0.00023,-0.00031,9,4.8,6
32.485,2735715.663,-0.00046,0.00023,-0.00031,9,4.8,6
32.5,2735715.682,0.00076,0.00023,-0.00031,9,4.8,6
32.517,2735715.701,0.00015,-0.00038,0.00031,9,4.8,6
32.536,2735715.72,0.00076,0.00023,0.00038,9,4.8,6
32.56,2735715.739,0.00015,-0.00038,-0.00084,9,4.8,6
32.578,2735715.758,0.00076,0.00023,-0.00023,9,4.8,6
32.599,2735715.777,0.00015,0.00023,-0.00023,9,4.8,6
32.618,2735715.796,-0.00107,0.00023,-0.00084,9,4.8,6
32.634,2735715.815,-0.00046,0.00023,-0.00023,9,4.8,6
32.654,2735715.834,0.00015,0.00023,-0.00023,9,4.8,6
32.674,2735715.853,0.00076,0.00023,0.00038,9,4.8,6
32.693,2735715.872,0.00015,-0.00038,-0.00023,9,4.8,6
32.71,2735715.891,0.00137,0.00023,-0.00023,9,4.8,6
32.728,2735715.91,-0.00046,-0.00038,-0.00023,9,4.8,6
32.747,2735715.929,0.00076,0.00023,-0.00023,9,4.8,6
32.767,2735715.948,-0.00046,0.00023,-0.00023,9,4.8,6
32.786,2735715.967,0.00015,0.00023,0.00038,9,4.8,6
32.808,2735715.986,-0.00053,0.00023,0.00107,9,4.8,6
32.823,2735716.006,8e-05,0.00023,0.00046,9,4.8,6
32.842,2735716.025,8e-05,0.00084,0.00046,9,4.8,6
32.862,2735716.044,8e-05,0.00023,0.00046,9,4.8,6
32.88,2735716.063,-0.00053,-0.00038,0.00046,9,4.8,6
32.9,2735716.082,8e-05,-0.00038,0.00046,9,4.8,6
32.919,2735716.101,8e-05,0.00023,0.00046,9,4.8,6
32.936,2735716.12,8e-05,0.00023,0.00107,9,4.8,6
32.96,2735716.139,8e-05,0.00015,0.00046,9,4.8,6
32.976,2735716.158,-0.00053,0.00015,-0.00015,9,4.8,6
32.993,2735716.177,0.0,0.00015,0.00046,9,4.8,6
33.014,2735716.196,-0.00061,0.00015,0.00046,9,4.8,6
33.036,2735716.215,0.00061,0.00015,0.00046,9,4.8,6
33.055,2735716.234,0.0,-0.00046,0.00046,9,4.8,6
33.071,2735716.253,0.0,-0.00046,0.00046,9,4.8,6
33.09,2735716.272,-0.00061,-0.00046,0.00038,9,4.8,6
33.108,2735716.291,0.00061,-0.00046,0.00038,9,4.8,6
33.128,2735716.31,0.0,-0.00046,0.00038,9,4.8,6
33.146,2735716.329,0.00061,0.00015,-0.00023,9,4.8,6
33.165,2735716.348,0.00061,0.00015,0.00038,9,4.8,6
33.184,2735716.367,0.0,0.00015,-0.00023,9,4.8,6
33.203,2735716.386,0.00061,-0.00046,0.00031,9,4.8,6
33.222,2735716.405,0.0,0.00015,0.00031,9,4.8,6
33.24,2735716.424,0.0,-0.00046,0.00031,9,4.8,6
33.26,2735716.443,0.0,0.00015,0.00031,9,4.8,6
33.283,2735716.462,0.0,-0.00046,-0.00031,9,4.8,6
33.299,2735716.481,-0.00061,0.00015,0.00023,9,4.8,6
33.317,2735716.5,0.00061,0.00015,0.00023,9,4.8,6
33.337,2735716.519,-0.00061,0.00015,0.00023,9,4.8,6
33.356,2735716.538,0.0,0.00015,0.00023,9,4.8,6
33.376,2735716.557,-0.00061,0.00015,-0.00046,9,4.8,6
33.395,2735716.576,0.00061,0.00015,0.00015,9,4.8,6
33.413,2735716.595,0.0,-0.00046,0.00015,9,4.8,6
33.432,2735716.614,0.00061,0.00015,0.00015,9,4.8,6
33.452,2735716.633,-0.00061,0.00015,-0.00046,9,4.8,6
33.475,2735716.652,0.0,0.00076,0.00015,9,4.8,6
33.493,2735716.671,0.0,-0.00046,8e-05,9,4.8,6
33.51,2735716.69,0.0,-0.00046,8e-05,9,4.8,6
33.527,2735716.709,0.0,0.00015,-0.00053,9,4.8,6
33.546,2735716.728,-0.0,0.00015,8e-05,9,4.8,6
33.568,2735716.747,-0.0,0.00023,8e-05,9,4.8,6
33.587,2735716.766,-0.00061,0.00023,8e-05,9,4.8,6
33.605,2735716.785,0.00122,-0.00038,0.00069,9,4.8,6
33.621,2735716.804,-0.00061,0.00023,0.00069,9,4.8,6
33.659,2735716.823,0.00061,0.00023,8e-05,9,4.8,6
33.664,2735716.842,-0.00061,0.00023,8e-05,9,4.8,6
33.678,2735716.861,-0.0,0.00023,-0.00053,9,4.8,6
33.698,2735716.88,-0.00061,-0.00038,0.00069,9,4.8,6
33.715,2735716.9,0.00061,-0.00038,8e-05,9,4.8,6
33.736,2735716.919,-0.00061,0.00023,8e-05,9,4.8,6
33.755,2735716.938,-0.0,0.00023,8e-05,9,4.8,6
33.777,2735716.957,-0.00061,0.00023,-0.00053,9,4.8,6
33.794,2735716.976,0.00061,-0.00046,8e-05,9,4.8,6
33.813,2735716.995,-0.0,-0.00046,0.00069,9,4.8,6
33.832,2735717.014,-0.00061,0.00015,8e-05,9,4.8,6
33.85,2735717.033,-0.0,-0.00046,8e-05,9,4.8,6
33.869,2735717.052,-0.0,-0.00046,8e-05,9,4.8,6
33.887,2735717.071,0.00061,0.00015,8e-05,9,4.8,6
33.907,2735717.09,-0.0,0.00015,8e-05,9,4.8,6
33.927,2735717.109,0.00061,0.00015,8e-05,9,4.8,6
33.945,2735717.128,0.0,-0.00046,8e-05,9,4.8,6
33.964,2735717.147,0.0,0.00015,8e-05,9,4.8,6
33.983,2735717.166,0.0,0.00076,-0.00053,9,4.8,6
34.005,2735717.185,0.00061,0.00015,8e-05,9,4.8,6
34.02,2735717.204,-0.00122,0.00015,-0.00053,9,4.8,6
34.04,2735717.223,0.0,0.00015,0.0,9,4.8,6
34.06,2735717.242,0.0,-0.00046,-0.00061,9,4.8,6
34.079,2735717.261,0.00061,-0.00046,0.0,9,4.8,6
34.098,2735717.28,0.0,-0.00046,0.00061,9,4.8,6
34.116,2735717.299,0.0,0.00015,0.0,9,4.8,6
34.137,2735717.318,-0.00061,-0.00046,0.0,9,4.8,6
34.156,2735717.337,0.0,0.00015,0.0,9,4.8,6
34.174,2735717.356,0.0,-0.00046,-0.00061,9,4.8,6
34.192,2735717.375,-0.00061,-0.00046,-0.00061,9,4.8,6
34.212,2735717.394,0.0,0.00015,0.0,9,4.8,6
34.234,2735717.413,0.0,0.00015,0.0,9,4.8,6
34.25,2735717.432,0.00061,-0.00038,0.0,9,4.8,6
34.269,2735717.451,-0.00122,-0.00038,-0.00061,9,4.8,6
34.288,2735717.47,0.0,0.00023,-0.00061,9,4.8,6
34.306,2735717.489,-0.00122,-0.00038,-0.00061,9,4.8,6
34.325,2735717.508,0.00061,0.00023,0.0,9,4.8,6
34.345,2735717.527,-0.00061,0.00023,0.0,9,4.8,6
34.365,2735717.546,0.0,0.00023,-0.00053,9,4.8,6
34.383,2735717.565,0.0,-0.00038,-0.00053,9,4.8,6
34.406,2735717.584,0.0,0.00023,-0.00053,9,4.8,6
34.42,2735717.603,0.0,-0.00038,-0.00053,9,4.8,6
34.438,2735717.622,0.00061,0.00023,8e-05,9,4.8,6
34.458,2735717.641,0.00061,0.00023,8e-05,9,4.8,6
34.479,2735717.66,8e-05,0.00023,-0.00053,9,4.8,6
34.497,2735717.679,0.00069,-0.00038,8e-05,9,4.8,6
34.517,2735717.698,-0.00053,0.00023,-0.00053,9,4.8,6
34.538,2735717.717,0.00069,0.00023,-0.00046,9,4.8,6
34.554,2735717.736,-0.00053,0.00023,-0.00046,9,4.8,6
34.575,2735717.755,8e-05,0.00023,0.00076,9,4.8,6
34.593,2735717.774,-0.00115,0.00023,0.00076,9,4.8,6
34.611,2735717.794,0.00069,0.00023,-0.00046,9,4.8,6
34.634,2735717.813,-0.00053,0.00023,0.00015,9,4.8,6
34.649,2735717.832,0.00069,0.00023,0.00084,9,4.8,6
34.669,2735717.851,-0.00053,0.00023,0.00023,9,4.8,6
34.691,2735717.87,0.00069,0.00023,-0.00038,9,4.8,6
34.709,2735717.889,8e-05,-0.00038,-0.00038,9,4.8,6
34.725,2735717.908,8e-05,0.00023,-0.00038,9,4.8,6
34.747,2735717.927,8e-05,0.00023,-0.00038,9,4.8,6
34.764,2735717.946,-0.00053,-0.00038,0.00023,9,4.8,6
34.786,2735717.965,-0.00053,0.00023,-0.00038,9,4.8,6
34.805,2735717.984,-0.00053,0.00023,0.00023,9,4.8,6
34.819,2735718.003,0.00069,-0.00038,0.00023,9,4.8,6
34.838,2735718.022,8e-05,0.00023,0.00023,9,4.8,6
34.861,2735718.041,0.00069,0.00023,-0.00038,9,4.8,6
34.877,2735718.06,-0.00053,0.00023,-0.00031,9,4.8,6
34.895,2735718.079,8e-05,0.00084,-0.00031,9,4.8,6
34.919,2735718.098,8e-05,-0.00038,-0.00031,9,4.8,6
34.936,2735718.117,0.00069,-0.00046,0.00031,9,4.8,6
34.959,2735718.136,-0.00053,0.00015,0.00031,9,4.8,6
34.974,2735718.155,0.00069,0.00015,0.00031,9,4.8,6
34.994,2735718.174,-0.00053,-0.00046,0.00031,9,4.8,6
35.011,2735718.193,0.00069,0.00015,0.00031,9,4.8,6
35.033,2735718.212,8e-05,-0.00046,-0.00031,9,4.8,6
35.049,2735718.231,8e-05,-0.00046,0.00031,9,4.8,6
35.074,2735718.25,0.00069,0.00015,-0.00031,9,4.8,6
35.092,2735718.269,-0.00053,0.00015,0.00023,9,4.8,6
35.105,2735718.288,0.00069,0.00015,0.00084,9,4.8,6
35.123,2735718.307,8e-05,0.00015,0.00023,9,4.8,6
35.143,2735718.326,0.00069,0.00015,-0.00038,9,4.8,6
35.162,2735718.345,8e-05,-0.00046,-0.00038,9,4.8,6
35.182,2735718.364,0.0013,0.00015,-0.00038,9,4.8,6
35.205,2735718.383,-0.00053,-0.00046,0.00023,9,4.8,6
35.219,2735718.402,0.00061,0.00015,-0.00038,9,4.8,6
35.24,2735718.421,-0.00061,-0.00046,-0.00038,9,4.8,6
35.259,2735718.44,0.00061,0.00015,-0.00038,9,4.8,6
35.277,2735718.459,0.0,-0.00046,-0.00038,9,4.8,6
35.296,2735718.478,0.0,0.00015,-0.00038,9,4.8,6
35.318,2735718.497,0.0,0.00015,-0.00038,9,4.8,6
35.335,2735718.516,0.0,0.00015,-0.00038,9,4.8,6
35.357,2735718.535,-0.00061,0.00015,-0.00038,9,4.8,6
35.374,2735718.554,-0.00061,0.00076,0.00023,9,4.8,6
35.39,2735718.573,0.00061,0.00015,-0.00038,9,4.8,6
35.41,2735718.592,0.00061,-0.00046,-0.00038,9,4.8,6
35.429,2735718.611,0.00053,-0.00046,-0.00038,9,4.8,6
35.448,2735718.63,-0.00069,-0.00046,-0.00031,9,4.8,6
35.467,2735718.649,0.00053,0.00015,-0.00031,9,4.8,6
35.49,2735718.668,-8e-05,-0.00046,-0.00031,9,4.8,6
35.505,2735718.688,0.00115,0.00015,0.00031,9,4.8,6
35.524,2735718.707,-0.00069,-0.00046,0.00031,9,4.8,6
35.543,2735718.726,0.00115,0.00015,0.00031,9,4.8,6
35.563,2735718.745,-8e-05,0.00015,-0.00031,9,4.8,6
35.585,2735718.764,-8e-05,0.00015,-0.00031,9,4.8,6
35.6,2735718.783,-0.00069,-0.00046,-0.00031,9,4.8,6
35.619,2735718.802,0.00053,-0.00038,0.00031,9,4.8,6
35.658,2735718.821,-8e-05,0.00023,0.00031,9,4.8,6
35.659,2735718.84,-0.00015,0.00023,-0.00023,9,4.8,6
35.675,2735718.859,-0.00015,0.00023,-0.00023,9,4.8,6
35.695,2735718.878,-0.00076,0.00023,-0.00023,9,4.8,6
35.715,2735718.897,-0.00015,-0.00038,-0.00023,9,4.8,6
35.733,2735718.916,-0.00076,0.00084,0.00038,9,4.8,6
35.753,2735718.935,0.00046,0.00023,-0.00023,9,4.8,6
35.776,2735718.954,-0.00076,-0.00038,0.00038,9,4.8,6
35.794,2735718.973,0.00046,0.00023,0.00099,9,4.8,6
35.81,2735718.992,-0.00015,0.00023,0.00038,9,4.8,6
35.83,2735719.011,0.00046,0.00023,0.00038,9,4.8,6
35.848,2735719.03,-0.00076,0.00023,0.00046,9,4.8,6
35.867,2735719.049,0.00046,0.00023,0.00046,9,4.8,6
35.886,2735719.068,-0.00076,0.00023,0.00046,9,4.8,6
35.908,2735719.087,-0.00015,0.00023,-0.00015,9,4.8,6
35.923,2735719.106,-0.00015,-0.00038,-0.00015,9,4.8,6
35.942,2735719.125,-0.00015,-0.00038,-0.00023,9,4.8,6
35.962,2735719.144,0.00046,0.00023,-0.00023,9,4.8,6
35.984,2735719.163,-8e-05,-0.00038,-0.00023,9,4.8,6
36.002,2735719.182,-8e-05,0.00015,0.00038,9,4.8,6
36.017,2735719.201,-8e-05,-0.00046,0.00038,9,4.8,6
36.039,2735719.22,0.00053,0.00015,0.00099,9,4.8,6
36.06,2735719.239,-0.00069,-0.00046,0.00038,9,4.8,6
36.085,2735719.258,-8e-05,0.00015,-0.00023,9,4.8,6
36.093,2735719.277,-8e-05,-0.00046,0.00099,9,4.8,6
36.114,2735719.296,0.00115,0.00015,0.00038,9,4.8,6
36.133,2735719.315,-8e-05,-0.00046,-0.00031,9,4.8,6
36.153,2735719.334,0.00115,-0.00046,0.00031,9,4.8,6
36.171,2735719.353,-0.00069,0.00015,0.00031,9,4.8,6
36.19,2735719.372,-8e-05,0.00015,0.00031,9,4.8,6
36.208,2735719.391,-0.00069,-0.00046,0.00092,9,4.8,6
36.229,2735719.41,-8e-05,0.00015,0.00031,9,4.8,6
36.251,2735719.429,-8e-05,0.00015,-0.00031,9,4.8,6
36.269,2735719.448,-8e-05,-0.00046,-0.00038,9,4.8,6
36.286,2735719.467,-0.00069,-0.00046,-0.00038,9,4.8,6
36.309,2735719.486,-8e-05,-0.00046,-0.00038,9,4.8,6
36.323,2735719.505,0.00053,0.00015,-0.00038,9,4.8,6
36.345,2735719.524,-8e-05,-0.00046,-0.00038,9,4.8,6
36.361,2735719.543,0.00053,-0.00038,0.00023,9,4.8,6
36.38,2735719.562,-0.00069,-0.00038,0.00023,9,4.8,6
36.399,2735719.582,-8e-05,0.00023,0.00023,9,4.8,6
36.416,2735719.601,-8e-05,-0.00038,0.00015,9,4.8,6
36.436,2735719.62,0.00053,0.00023,0.00015,9,4.8,6
36.455,2735719.639,-0.00069,0.00023,0.00015,9,4.8,6
36.477,2735719.658,-8e-05,0.00023,0.00015,9,4.8,6
36.494,2735719.677,-8e-05,-0.00038,0.00015,9,4.8,6
36.513,2735719.696,-8e-05,0.00023,0.00015,9,4.8,6
36.532,2735719.715,-8e-05,-0.00038,0.00015,9,4.8,6
36.551,2735719.734,0.00053,-0.00031,0.00015,9,4.8,6
36.572,2735719.753,-8e-05,-0.00031,0.00015,9,4.8,6
36.593,2735719.772,-8e-05,0.00031,-0.00046,9,4.8,6
36.608,2735719.791,-0.00069,0.00031,-0.00046,9,4.8,6
36.628,2735719.81,-0.00069,0.00031,-0.00046,9,4.8,6
36.651,2735719.829,-8e-05,0.00031,-0.00046,9,4.8,6
36.668,2735719.848,-8e-05,0.00031,0.00015,9,4.8,6
36.688,2735719.867,0.00053,0.00031,0.00015,9,4.8,6
36.704,2735719.886,-8e-05,0.00031,-0.00046,9,4.8,6
36.722,2735719.905,0.00053,0.00031,-0.00046,9,4.8,6
36.741,2735719.924,-8e-05,0.00031,-0.00046,9,4.8,6
36.76,2735719.943,0.00053,0.00031,-0.00046,9,4.8,6
36.78,2735719.962,-0.00061,-0.00031,0.00015,9,4.8,6
36.798,2735719.981,0.00061,0.00031,0.00015,9,4.8,6
36.819,2735720.0,-0.00061,0.00031,-0.00046,9,4.8,6
36.84,2735720.019,-0.0,0.00031,-0.00046,9,4.8,6
36.856,2735720.038,-0.0,0.00031,0.00015,9,4.8,6
36.875,2735720.057,-0.0,-0.00031,0.00015,9,4.8,6
36.892,2735720.076,-0.0,-0.00031,-0.00038,9,4.8,6
36.917,2735720.095,0.00122,-0.00092,-0.00038,9,4.8,6
36.932,2735720.114,0.00061,-0.00031,-0.00038,9,4.8,6
36.955,2735720.133,-0.0,-0.00031,0.00023,9,4.8,6
36.97,2735720.152,0.00122,-0.00038,0.00023,9,4.8,6
36.992,2735720.171,-0.0,-0.00038,-0.00038,9,4.8,6
37.009,2735720.19,0.00061,0.00023,0.00023,9,4.8,6
37.026,2735720.209,-0.00122,-0.00038,0.00023,9,4.8,6
37.045,2735720.228,-0.0,-0.00038,-0.00038,9,4.8,6
37.065,2735720.247,-0.00061,-0.00038,-0.00038,9,4.8,6
37.09,2735720.266,-8e-05,0.00023,0.00023,9,4.8,6
37.103,2735720.285,-0.0013,0.00023,0.00023,9,4.8,6
37.12,2735720.304,0.00053,0.00023,0.00031,9,4.8,6
37.141,2735720.323,-0.00069,-0.00038,0.00092,9,4.8,6
37.159,2735720.342,-8e-05,-0.00038,0.00092,9,4.8,6
37.179,2735720.361,-8e-05,-0.00038,0.00092,9,4.8,6
37.197,2735720.38,-8e-05,0.00023,0.00031,9,4.8,6
37.217,2735720.399,-8e-05,0.00023,0.00031,9,4.8,6
37.238,2735720.418,-8e-05,-0.00038,0.00031,9,4.8,6
37.26,2735720.437,0.00053,0.00023,0.00031,9,4.8,6
37.278,2735720.456,-8e-05,-0.00038,0.00031,9,4.8,6
37.294,2735720.476,0.00053,0.00031,0.00031,9,4.8,6
37.313,2735720.495,-8e-05,0.00031,0.00031,9,4.8,6
37.331,2735720.514,0.00053,-0.00031,-0.00031,9,4.8,6
37.355,2735720.533,-8e-05,-0.00031,-0.00031,9,4.8,6
37.373,2735720.552,0.00115,0.00031,-0.00038,9,4.8,6
37.393,2735720.571,-0.00069,0.00031,-0.00038,9,4.8,6
37.407,2735720.59,0.00053,0.00031,-0.00038,9,4.8,6
37.425,2735720.609,-8e-05,0.00031,0.00023,9,4.8,6
37.445,2735720.628,-8e-05,0.00031,0.00023,9,4.8,6
37.467,2735720.647,-8e-05,-0.00031,-0.00038,9,4.8,6
37.486,2735720.666,-8e-05,0.00031,-0.00038,9,4.8,6
37.503,2735720.685,-0.00069,-0.00023,-0.00046,9,4.8,6
37.52,2735720.704,-8e-05,0.00038,-0.00107,9,4.8,6
37.541,2735720.723,-8e-05,0.00038,-0.00046,9,4.8,6
37.56,2735720.742,-0.00069,0.00038,-0.00046,9,4.8,6
37.579,2735720.761,0.00053,0.00031,0.00015,9,4.8,6
37.597,2735720.78,-8e-05,-0.00031,-0.00046,9,4.8,6
37.621,2735720.799,0.00053,-0.00031,-0.00046,9,4.8,6
37.656,2735720.818,-0.00069,0.00031,0.00015,9,4.8,6
37.658,2735720.837,0.00053,0.00031,-0.00046,9,4.8,6
37.672,2735720.856,-0.00069,-0.00031,-0.00046,9,4.8,6
37.691,2735720.875,0.00053,0.00031,-0.00046,9,4.8,6
37.712,2735720.894,-8e-05,0.00031,0.00015,9,4.8,6
37.73,2735720.913,0.00053,0.00031,-0.00107,9,4.8,6
37.749,2735720.932,-8e-05,-0.00031,-0.00046,9,4.8,6
37.769,2735720.951,0.00053,-0.00031,-0.00038,9,4.8,6
37.786,2735720.97,-0.00069,0.00031,-0.00038,9,4.8,6
37.806,2735720.989,-8e-05,0.00092,0.00023,9,4.8,6
37.825,2735721.008,-8e-05,-0.00038,0.00023,9,4.8,6
37.843,2735721.027,-8e-05,0.00023,-0.00038,9,4.8,6
37.865,2735721.046,0.00053,0.00023,-0.00031,9,4.8,6
37.882,2735721.065,-0.00069,-0.00038,0.00031,9,4.8,6
37.902,2735721.084,-8e-05,0.00023,0.00031,9,4.8,6
37.92,2735721.103,-8e-05,0.00023,0.00092,9,4.8,6
37.939,2735721.122,0.00053,0.00023,0.00038,9,4.8,6
37.961,2735721.141,-0.00069,0.00023,0.00038,9,4.8,6
37.977,2735721.16,0.00053,0.00023,0.00038,9,4.8,6
37.996,2735721.179,-0.00069,-0.00038,-0.00023,9,4.8,6
38.016,2735721.198,0.00053,-0.00099,0.00038,9,4.8,6
38.037,2735721.217,-8e-05,-0.00099,-0.00023,9,4.8,6
38.053,2735721.236,-8e-05,-0.00038,-0.00023,9,4.8,6
38.072,2735721.255,-8e-05,0.00023,0.00038,9,4.8,6
38.09,2735721.274,0.00053,0.00023,0.00046,9,4.8,6
38.11,2735721.293,-8e-05,-0.00038,-0.00015,9,4.8,6
38.129,2735721.312,-8e-05,-0.00038,0.00107,9,4.8,6
38.148,2735721.331,-8e-05,-0.00038,0.00038,9,4.8,6
38.167,2735721.35,-8e-05,-0.00038,-0.00023,9,4.8,6
38.186,2735721.37,-8e-05,0.00023,-0.00023,9,4.8,6
38.207,2735721.389,-8e-05,0.00023,0.00038,9,4.8,6
38.223,2735721.408,0.00053,0.00023,0.00038,9,4.8,6
38.244,2735721.427,-0.00069,0.00084,-0.00023,9,4.8,6
38.27,2735721.446,0.00053,0.00023,0.00038,9,4.8,6
38.281,2735721.465,-0.00069,-0.00038,0.00038,9,4.8,6
38.3,2735721.484,0.00053,0.00023,-0.00023,9,4.8,6
38.318,2735721.503,-0.00069,-0.00038,0.00038,9,4.8,6
38.338,2735721.522,-8e-05,-0.00038,0.00031,9,4.8,6
38.357,2735721.541,-0.00069,-0.00038,-0.00031,9,4.8,6
38.376,2735721.56,-8e-05,0.00023,-0.00031,9,4.8,6
38.395,2735721.579,-0.00069,0.00023,-0.00031,9,4.8,6
38.415,2735721.598,-8e-05,0.00023,-0.00031,9,4.8,6
38.433,2735721.617,-8e-05,0.00023,-0.00031,9,4.8,6
38.455,2735721.636,-8e-05,0.00031,0.00023,9,4.8,6
38.471,2735721.655,0.00053,0.00031,-0.00038,9,4.8,6
38.491,2735721.674,-8e-05,-0.00031,-0.00038,9,4.8,6
38.512,2735721.693,0.00053,0.00092,0.00023,9,4.8,6
38.529,2735721.712,-0.0013,0.00031,-0.00038,9,4.8,6
38.548,2735721.731,-8e-05,0.00031,-0.00038,9,4.8,6
38.567,2735721.75,-0.00069,-0.00031,0.00023,9,4.8,6
38.586,2735721.769,-0.0,-0.00031,-0.00038,9,4.8,6
38.604,2735721.788,-0.00061,-0.00031,-0.00038,9,4.8,6
38.624,2735721.807,0.00061,0.00031,0.00023,9,4.8,6
38.642,2735721.826,-0.00061,-0.00031,-0.00038,9,4.8,6
38.661,2735721.845,-0.0,-0.00031,-0.00038,9,4.8,6
38.684,2735721.864,-0.00061,-0.00031,-0.00038,9,4.8,6
38.702,2735721.883,-0.0,0.00084,0.00023,9,4.8,6
38.718,2735721.902,0.0,-0.00038,0.00023,9,4.8,6
38.737,2735721.921,-0.00061,0.00023,0.00031,9,4.8,6
38.758,2735721.94,0.0,0.00023,-0.00031,9,4.8,6
38.775,2735721.959,-0.00061,-0.00038,0.00031,9,4.8,6
38.797,2735721.978,0.00061,0.00023,0.00031,9,4.8,6
38.815,2735721.997,8e-05,0.00023,-0.00031,9,4.8,6
38.833,2735722.016,8e-05,0.00023,-0.00031,9,4.8,6
38.852,2735722.035,-0.00053,-0.00038,-0.00031,9,4.8,6
38.872,2735722.054,0.00069,-0.00038,-0.00031,9,4.8,6
38.889,2735722.073,8e-05,-0.00038,0.00092,9,4.8,6
38.909,2735722.092,0.00069,0.00023,0.00031,9,4.8,6
38.929,2735722.111,8e-05,0.00023,0.00031,9,4.8,6
38.947,2735722.13,0.00069,0.00023,0.00038,9,4.8,6
38.966,2735722.149,8e-05,-0.00038,-0.00023,9,4.8,6
38.985,2735722.168,0.00069,0.00023,-0.00023,9,4.8,6
39.003,2735722.187,8e-05,-0.00038,-0.00023,9,4.8,6
39.024,2735722.206,0.00069,-0.00038,0.00038,9,4.8,6
39.042,2735722.225,-0.00053,0.00023,0.00038,9,4.8,6
39.061,2735722.244,8e-05,-0.00038,0.00038,9,4.8,6
39.08,2735722.264,0.00069,0.00023,-0.00023,9,4.8,6
39.1,2735722.283,-0.00053,0.00023,0.00038,9,4.8,6
39.118,2735722.302,8e-05,0.00023,0.00038,9,4.8,6
39.136,2735722.321,-0.00053,0.00023,0.00038,9,4.8,6
39.155,2735722.34,0.00069,0.00084,0.00031,9,4.8,6
39.176,2735722.359,-0.00053,0.00023,0.00092,9,4.8,6
39.194,2735722.378,8e-05,0.00023,-0.00031,9,4.8,6
39.214,2735722.397,-0.00053,0.00023,-0.00031,9,4.8,6
39.233,2735722.416,0.00069,0.00023,0.00031,9,4.8,6
39.252,2735722.435,-0.00053,0.00023,-0.00031,9,4.8,6
39.271,2735722.454,0.00069,0.00023,-0.00031,9,4.8,6
39.29,2735722.473,8e-05,0.00023,-0.00031,9,4.8,6
39.309,2735722.492,0.0,0.00023,-0.00031,9,4.8,6
39.328,2735722.511,0.00061,-0.00038,0.00031,9,4.8,6
39.349,2735722.53,0.0,-0.00038,0.00031,9,4.8,6
39.366,2735722.549,0.0,-0.00038,0.00023,9,4.8,6
39.385,2735722.568,-0.00061,0.00023,-0.00099,9,4.8,6
39.403,2735722.587,-0.0,0.00084,0.00023,9,4.8,6
39.422,2735722.606,-0.00061,0.00023,0.00023,9,4.8,6
39.442,2735722.625,0.00061,-0.00038,-0.00038,9,4.8,6
39.461,2735722.644,-0.00061,-0.00038,-0.00038,9,4.8,6
39.48,2735722.663,0.00061,0.00015,0.00084,9,4.8,6
39.499,2735722.682,-0.00061,-0.00046,0.00023,9,4.8,6
39.517,2735722.701,0.00061,0.00076,-0.00038,9,4.8,6
39.537,2735722.72,-0.00061,0.00015,-0.00038,9,4.8,6
39.555,2735722.739,0.00061,-0.00046,-0.00038,9,4.8,6
39.575,2735722.758,-0.0,-0.00046,0.00023,9,4.8,6
39.593,2735722.777,0.00061,-0.00046,0.00023,9,4.8,6
39.614,2735722.796,-0.00061,0.00015,-0.00038,9,4.8,6
39.634,2735722.815,-0.0,0.00015,-0.00038,9,4.8,6
39.66,2735722.834,-0.0,0.00015,-0.00038,9,4.8,6
39.67,2735722.853,-0.0,-0.00046,-0.00038,9,4.8,6
39.69,2735722.872,0.00061,-0.00046,-0.00038,9,4.8,6
39.709,2735722.891,-0.0,-0.00046,0.00023,9,4.8,6
39.728,2735722.91,-0.0,0.00015,0.00023,9,4.8,6
39.747,2735722.929,-0.00061,-0.00046,0.00023,9,4.8,6
39.767,2735722.948,-0.0,0.00015,0.00023,9,4.8,6
39.786,2735722.967,-0.00061,-0.00046,-0.00092,9,4.8,6
39.804,2735722.986,-0.0,0.00015,-0.00031,9,4.8,6
39.822,2735723.005,-0.00061,0.00015,0.00031,9,4.8,6
39.841,2735723.024,-0.0,0.00015,0.00031,9,4.8,6
39.865,2735723.043,-0.00061,-0.00046,0.00031,9,4.8,6
39.88,2735723.062,0.00061,0.00015,-0.00031,9,4.8,6
39.898,2735723.081,0.0,0.00015,-0.00031,9,4.8,6
39.916,2735723.1,0.0,0.00076,-0.00031,9,4.8,6
39.94,2735723.119,-0.00061,0.00076,-0.00031,9,4.8,6
39.961,2735723.138,0.0,0.00023,-0.00031,9,4.8,6
39.977,2735723.158,0.0,0.00023,-0.00031,9,4.8,6
39.995,2735723.177,-0.00061,-0.00038,-0.00031,9,4.8,6
40.015,2735723.196,0.0,-0.00038,0.00092,9,4.8,6
40.037,2735723.215,0.0,-0.00038,0.00031,9,4.8,6
40.054,2735723.234,0.00122,-0.00038,0.00031,9,4.8,6
40.075,2735723.253,-0.00061,-0.00038,0.00031,9,4.8,6
40.089,2735723.272,0.00061,0.00023,0.00031,9,4.8,6
40.107,2735723.291,-0.00053,-0.00038,0.00031,9,4.8,6
40.127,2735723.31,8e-05,0.00023,0.00038,9,4.8,6
40.147,2735723.329,-0.00053,0.00023,-0.00084,9,4.8,6
40.166,2735723.348,8e-05,0.00023,-0.00084,9,4.8,6
40.185,2735723.367,-0.00053,-0.00038,-0.00023,9,4.8,6
40.203,2735723.386,0.00069,0.00023,0.00038,9,4.8,6
40.222,2735723.405,8e-05,-0.00038,0.00038,9,4.8,6
40.241,2735723.424,0.00069,-0.00038,0.00038,9,4.8,6
40.261,2735723.443,0.00069,-0.00038,0.00038,9,4.8,6
40.284,2735723.462,8e-05,-0.00038,0.00031,9,4.8,6
40.298,2735723.481,8e-05,-0.00038,0.00031,9,4.8,6
40.316,2735723.5,8e-05,-0.00038,0.00031,9,4.8,6
40.339,2735723.519,8e-05,0.00023,0.00031,9,4.8,6
40.357,2735723.538,-0.00053,-0.00038,-0.00031,9,4.8,6
40.377,2735723.557,0.00069,0.00023,-0.00031,9,4.8,6
40.393,2735723.576,-0.00053,0.00023,0.00031,9,4.8,6
40.413,2735723.595,0.00069,0.00023,0.00092,9,4.8,6
40.433,2735723.614,-0.00053,-0.00038,0.00031,9,4.8,6
40.451,2735723.633,0.00069,0.00023,0.00031,9,4.8,6
40.472,2735723.652,8e-05,0.00023,-0.00031,9,4.8,6
40.49,2735723.671,0.00069,0.00023,-0.00031,9,4.8,6
40.506,2735723.69,8e-05,0.00023,0.00031,9,4.8,6
40.527,2735723.709,8e-05,0.00023,0.00031,9,4.8,6
40.546,2735723.728,-0.00053,0.00023,-0.00031,9,4.8,6
40.569,2735723.747,0.0,-0.00031,0.00031,9,4.8,6
40.587,2735723.766,0.0,-0.00031,0.00023,9,4.8,6
40.604,2735723.785,-0.00061,0.00031,-0.00038,9,4.8,6
40.622,2735723.804,0.0,0.00031,-0.00038,9,4.8,6
40.641,2735723.823,-0.00061,0.00031,0.00023,9,4.8,6
40.66,2735723.842,0.0,-0.00031,-0.00038,9,4.8,6
40.679,2735723.861,-0.00061,-0.00092,0.00023,9,4.8,6
40.698,2735723.88,0.00061,-0.00031,-0.00038,9,4.8,6
40.717,2735723.899,-0.0,-0.00031,-0.00038,9,4.8,6
40.74,2735723.918,0.00061,0.00031,-0.00038,9,4.8,6
40.755,2735723.937,-0.0,-0.00031,-0.00038,9,4.8,6
40.775,2735723.956,0.00061,0.00031,0.00023,9,4.8,6
40.792,2735723.975,-0.00061,0.00031,0.00023,9,4.8,6
40.811,2735723.994,-0.0,0.00031,0.00023,9,4.8,6
40.834,2735724.013,-0.0,-0.00092,0.00023,9,4.8,6
40.85,2735724.032,0.00061,0.00031,0.00023,9,4.8,6
40.872,2735724.052,-0.00061,0.00031,-0.00038,9,4.8,6
40.89,2735724.071,-0.0,0.00031,-0.00038,9,4.8,6
40.91,2735724.09,0.00061,0.00031,-0.00038,9,4.8,6
40.925,2735724.109,0.00061,-0.00092,-0.00038,9,4.8,6
40.945,2735724.128,-0.0,0.00031,-0.00038,9,4.8,6
40.967,2735724.147,-0.00061,-0.00031,0.00023,9,4.8,6
40.984,2735724.166,0.00061,-0.00031,-0.00038,9,4.8,6
41.002,2735724.185,-0.0,-0.00092,0.00023,9,4.8,6
41.021,2735724.204,0.00061,-0.00092,-0.00038,9,4.8,6
41.039,2735724.223,-0.00061,-0.00031,-0.00038,9,4.8,6
41.06,2735724.242,-0.0,0.00031,0.00023,9,4.8,6
41.079,2735724.261,-0.0,0.00031,0.00023,9,4.8,6
41.097,2735724.28,0.00122,0.00031,0.00023,9,4.8,6
41.115,2735724.299,-0.0,0.00031,0.00031,9,4.8,6
41.136,2735724.318,0.00061,0.00031,0.00092,9,4.8,6
41.155,2735724.337,-0.0,0.00092,0.00092,9,4.8,6
41.173,2735724.356,-0.0,0.00031,0.00092,9,4.8,6
41.191,2735724.375,-0.0,-0.00031,-0.00031,9,4.8,6
41.212,2735724.394,-0.0,0.00031,-0.00031,9,4.8,6
41.233,2735724.413,-0.0,0.00031,0.00031,9,4.8,6
41.253,2735724.432,-0.00061,-0.00031,-0.00031,9,4.8,6
41.271,2735724.451,-8e-05,0.00031,-0.00031,9,4.8,6
41.287,2735724.47,-8e-05,-0.00031,-0.00031,9,4.8,6
41.309,2735724.489,0.00053,0.00031,0.00031,9,4.8,6
41.325,2735724.508,-8e-05,0.00031,0.00031,9,4.8,6
41.344,2735724.527,0.00115,0.00031,-0.00031,9,4.8,6
41.363,2735724.546,-0.00069,-0.00031,0.00031,9,4.8,6
41.387,2735724.565,-8e-05,0.00031,-0.00031,9,4.8,6
41.402,2735724.584,-0.00069,0.00031,-0.00092,9,4.8,6
41.419,2735724.603,0.00053,0.00031,-0.00031,9,4.8,6
41.439,2735724.622,-8e-05,0.00031,0.00023,9,4.8,6
41.458,2735724.641,-8e-05,0.00092,-0.00038,9,4.8,6
41.477,2735724.66,-8e-05,0.00031,0.00023,9,4.8,6
41.496,2735724.679,-8e-05,0.00031,0.00023,9,4.8,6
41.516,2735724.698,0.00053,-0.00031,-0.00038,9,4.8,6
41.536,2735724.717,-0.00069,-0.00031,-0.00038,9,4.8,6
41.555,2735724.736,-8e-05,0.00031,-0.00038,9,4.8,6
41.577,2735724.755,-0.00069,-0.00031,-0.00038,9,4.8,6
41.593,2735724.774,0.00053,-0.00031,-0.00038,9,4.8,6
41.611,2735724.793,-0.00069,-0.00038,0.00023,9,4.8,6
41.634,2735724.812,-8e-05,0.00023,-0.00038,9,4.8,6
41.658,2735724.831,-8e-05,0.00023,-0.00038,9,4.8,6
41.668,2735724.85,0.00053,0.00023,-0.00038,9,4.8,6
41.687,2735724.869,-0.00069,-0.00038,-0.00038,9,4.8,6
41.705,2735724.888,0.00053,0.00023,0.00023,9,4.8,6
41.725,2735724.907,-0.00069,0.00023,0.00023,9,4.8,6
41.744,2735724.926,-8e-05,0.00023,0.00031,9,4.8,6
41.768,2735724.946,-8e-05,-0.00046,0.00031,9,4.8,6
41.784,2735724.965,-8e-05,-0.00046,-0.00031,9,4.8,6
41.805,2735724.984,-8e-05,0.00015,-0.00031,9,4.8,6
41.82,2735725.003,-8e-05,0.00015,-0.00031,9,4.8,6
41.84,2735725.022,-8e-05,0.00015,0.00031,9,4.8,6
41.857,2735725.041,-0.00069,0.00015,0.00031,9,4.8,6
41.878,2735725.06,0.00053,0.00015,0.00031,9,4.8,6
41.895,2735725.079,-8e-05,0.00015,0.00031,9,4.8,6
41.916,2735725.098,0.00053,0.00015,-0.00023,9,4.8,6
41.934,2735725.117,-0.00061,-0.00107,-0.00023,9,4.8,6
41.957,2735725.136,0.00061,-0.00046,0.00038,9,4.8,6
41.976,2735725.155,-0.00122,-0.00046,0.00038,9,4.8,6
41.993,2735725.174,-0.0,-0.00046,-0.00023,9,4.8,6
42.011,2735725.193,-0.00061,-0.00046,0.00038,9,4.8,6
42.031,2735725.212,-0.0,0.00015,0.00038,9,4.8,6
42.049,2735725.231,-0.00122,0.00015,0.00038,9,4.8,6
42.068,2735725.25,0.0,0.00015,0.00038,9,4.8,6
42.088,2735725.269,-0.00061,0.00015,-0.00023,9,4.8,6
42.105,2735725.288,0.0,0.00023,0.00038,9,4.8,6
42.124,2735725.307,0.0,0.00023,0.00038,9,4.8,6
42.143,2735725.326,0.0,-0.00038,0.00038,9,4.8,6
42.163,2735725.345,0.0,0.00023,-0.00023,9,4.8,6
42.182,2735725.364,8e-05,0.00023,-0.00023,9,4.8,6
42.2,2735725.383,8e-05,0.00023,-0.00092,9,4.8,6
42.22,2735725.402,8e-05,-0.00038,-0.00031,9,4.8,6
42.238,2735725.421,0.00069,0.00023,0.00031,9,4.8,6
42.258,2735725.44,-0.00115,-0.00038,0.00031,9,4.8,6
42.275,2735725.459,8e-05,-0.00038,-0.00031,9,4.8,6
42.296,2735725.478,-0.00053,-0.00038,0.00031,9,4.8,6
42.32,2735725.497,0.00069,0.00023,0.00031,9,4.8,6
42.335,2735725.516,-0.00053,-0.00038,0.00031,9,4.8,6
42.352,2735725.535,8e-05,0.00023,0.00031,9,4.8,6
42.372,2735725.554,8e-05,0.00023,0.00031,9,4.8,6
42.39,2735725.573,8e-05,0.00084,0.00031,9,4.8,6
42.41,2735725.592,0.00015,-0.00038,0.00092,9,4.8,6
42.429,2735725.611,0.00015,0.00023,0.00031,9,4.8,6
42.447,2735725.63,0.00015,-0.00038,0.00023,9,4.8,6
42.466,2735725.649,-0.00046,0.00023,0.00023,9,4.8,6
42.486,2735725.668,0.00015,0.00023,0.00023,9,4.8,6
42.505,2735725.687,-0.00046,-0.00038,-0.00038,9,4.8,6
42.523,2735725.706,0.00076,0.00023,-0.00038,9,4.8,6
42.541,2735725.725,-0.00046,-0.00038,-0.00038,9,4.8,6
42.561,2735725.744,0.00015,0.00023,-0.00038,9,4.8,6
42.583,2735725.763,-0.00046,0.00023,0.00023,9,4.8,6
42.599,2735725.782,0.00015,0.00023,-0.00038,9,4.8,6
42.618,2735725.801,-0.00046,-0.00038,0.00084,9,4.8,6
42.636,2735725.82,0.00076,0.00023,0.00023,9,4.8,6
42.658,2735725.84,-0.00046,-0.00038,-0.00038,9,4.8,6
42.675,2735725.859,0.00015,-0.00038,0.00023,9,4.8,6
42.698,2735725.878,0.00015,-0.00038,-0.00038,9,4.8,6
42.719,2735725.897,0.00015,-0.00038,0.00023,9,4.8,6
42.733,2735725.916,-0.00046,0.00023,-0.00038,9,4.8,6
42.753,2735725.935,-0.00046,0.00023,-0.00038,9,4.8,6
42.774,2735725.954,0.00076,-0.00038,0.00023,9,4.8,6
42.794,2735725.973,-0.00046,0.00023,0.00023,9,4.8,6
42.809,2735725.992,0.00076,0.00023,0.00023,9,4.8,6
42.829,2735726.011,-0.00046,-0.00038,0.00015,9,4.8,6
42.847,2735726.03,0.00137,-0.00038,-0.00046,9,4.8,6
42.87,2735726.049,-0.00046,-0.00038,0.00015,9,4.8,6
42.887,2735726.068,0.00076,0.00023,0.00015,9,4.8,6
42.905,2735726.087,-0.00107,-0.00038,-0.00046,9,4.8,6
42.923,2735726.106,0.00076,0.00023,-0.00046,9,4.8,6
42.942,2735726.125,-0.00046,0.00023,0.00015,9,4.8,6
42.962,2735726.144,0.00015,0.00023,0.00015,9,4.8,6
42.98,2735726.163,0.00076,-0.00038,0.00015,9,4.8,6
42.998,2735726.182,0.00076,0.00023,0.00015,9,4.8,6
43.018,2735726.201,0.00015,0.00023,-0.00046,9,4.8,6
43.035,2735726.22,0.00076,0.00023,-0.00046,9,4.8,6
43.058,2735726.239,0.00076,-0.00038,-0.00099,9,4.8,6
43.075,2735726.258,-0.00046,0.00023,-0.00038,9,4.8,6
43.093,2735726.277,0.00076,-0.00038,-0.00038,9,4.8,6
43.114,2735726.296,-0.00046,-0.00031,0.00023,9,4.8,6
43.132,2735726.315,0.00069,0.00031,0.00023,9,4.8,6
43.152,2735726.334,-0.00053,0.00031,0.00023,9,4.8,6
43.171,2735726.353,0.00069,0.00031,-0.00038,9,4.8,6
43.193,2735726.372,-0.00053,0.00031,-0.00038,9,4.8,6
43.209,2735726.391,0.00069,0.00031,-0.00038,9,4.8,6
43.231,2735726.41,8e-05,-0.00031,-0.00038,9,4.8,6
43.25,2735726.429,0.0013,0.00031,0.00023,9,4.8,6
43.27,2735726.448,8e-05,-0.00031,0.00023,9,4.8,6
43.288,2735726.467,0.00069,0.00031,-0.00038,9,4.8,6
43.304,2735726.486,-0.00061,0.00031,-0.00099,9,4.8,6
43.323,2735726.505,0.0,0.00031,-0.00038,9,4.8,6
43.342,2735726.524,0.00061,-0.00031,-0.00031,9,4.8,6
43.362,2735726.543,-0.0,0.00031,-0.00031,9,4.8,6
43.383,2735726.562,-0.0,-0.00031,-0.00031,9,4.8,6
43.4,2735726.581,-0.0,0.00023,-0.00031,9,4.8,6
43.417,2735726.6,-0.0,0.00023,-0.00031,9,4.8,6
43.438,2735726.619,-0.00069,-0.00038,0.00031,9,4.8,6
43.46,2735726.638,-8e-05,0.00023,0.00031,9,4.8,6
43.477,2735726.657,-0.00069,-0.00038,0.00031,9,4.8,6
43.493,2735726.676,0.00053,0.00023,0.00031,9,4.8,6
43.514,2735726.695,-0.00069,0.00023,-0.00023,9,4.8,6
43.535,2735726.714,0.00053,0.00023,0.00038,9,4.8,6
43.554,2735726.734,-8e-05,-0.00038,0.00038,9,4.8,6
43.574,2735726.753,0.00053,0.00084,0.00038,9,4.8,6
43.593,2735726.772,-0.00069,0.00023,-0.00023,9,4.8,6
43.61,2735726.791,-8e-05,-0.00038,-0.00084,9,4.8,6
43.635,2735726.81,-8e-05,-0.00038,-0.00023,9,4.8,6
43.659,2735726.829,-8e-05,-0.00038,0.00038,9,4.8,6
43.668,2735726.848,0.00053,-0.00038,0.00099,9,4.8,6
43.685,2735726.867,-8e-05,-0.00038,0.00038,9,4.8,6
43.703,2735726.886,-0.00069,0.00023,0.00038,9,4.8,6
43.721,2735726.905,-0.00069,0.00023,0.00038,9,4.8,6
43.74,2735726.924,0.00053,0.00023,0.00038,9,4.8,6
43.761,2735726.943,-0.00069,0.00023,0.00038,9,4.8,6
43.783,2735726.962,0.00053,0.00023,0.00038,9,4.8,6
43.798,2735726.981,-0.00069,-0.00038,0.00038,9,4.8,6
43.816,2735727.0,0.00053,0.00023,0.00099,9,4.8,6
43.84,2735727.019,-0.00069,0.00023,0.00038,9,4.8,6
43.856,2735727.038,0.00053,0.00023,0.00038,9,4.8,6
43.874,2735727.057,-0.00069,0.00023,-0.00023,9,4.8,6
43.892,2735727.076,0.00053,0.00023,-0.00023,9,4.8,6
43.917,2735727.095,-8e-05,-0.00038,0.00038,9,4.8,6
43.935,2735727.114,-8e-05,0.00023,-0.00023,9,4.8,6
43.951,2735727.133,0.00053,-0.00038,0.00031,9,4.8,6
43.974,2735727.152,-0.0,-0.00099,-0.00031,9,4.8,6
43.989,2735727.171,-0.0,0.00023,-0.00031,9,4.8,6
44.007,2735727.19,-0.00061,0.00023,0.00031,9,4.8,6
44.027,2735727.209,0.00061,0.00023,0.00031,9,4.8,6
44.049,2735727.228,-0.00061,-0.00038,0.00023,9,4.8,6
44.064,2735727.247,-0.0,-0.00038,-0.00038,9,4.8,6
44.084,2735727.266,-0.00061,-0.00038,0.00023,9,4.8,6
44.102,2735727.285,0.00061,-0.00038,0.00023,9,4.8,6
44.12,2735727.304,-0.00061,0.00023,0.00023,9,4.8,6
44.141,2735727.323,-0.0,0.00023,0.00023,9,4.8,6
44.159,2735727.342,-0.00061,0.00023,-0.00038,9,4.8,6
44.178,2735727.361,0.00061,0.00023,-0.00046,9,4.8,6
44.197,2735727.38,0.0,0.00023,0.00015,9,4.8,6
44.216,2735727.399,0.0,0.00023,0.00015,9,4.8,6
44.236,2735727.418,0.0,-0.00038,0.00015,9,4.8,6
44.256,2735727.437,0.0,-0.00038,-0.00046,9,4.8,6
44.278,2735727.456,0.0,-0.00038,-0.00046,9,4.8,6
44.292,2735727.475,0.0,-0.00038,0.00015,9,4.8,6
44.315,2735727.494,0.0,0.00023,0.00015,9,4.8,6
44.331,2735727.513,-0.00061,-0.00038,-0.00046,9,4.8,6
44.35,2735727.532,0.00061,-0.00038,0.00015,9,4.8,6
44.369,2735727.551,0.0,-0.00038,0.00015,9,4.8,6
44.389,2735727.57,0.00061,0.00023,-0.00046,9,4.8,6
44.407,2735727.589,-0.00061,-0.00038,0.00015,9,4.8,6
44.427,2735727.608,0.00061,-0.00038,0.00015,9,4.8,6
44.445,2735727.628,0.0,0.00023,0.00015,9,4.8,6
44.465,2735727.647,0.00061,0.00023,0.00076,9,4.8,6
44.487,2735727.666,0.0,0.00031,0.00015,9,4.8,6
44.506,2735727.685,0.00061,0.00031,0.00015,9,4.8,6
44.521,2735727.704,0.0,-0.00031,-0.00046,9,4.8,6
44.543,2735727.723,0.0,-0.00031,0.00015,9,4.8,6
44.559,2735727.742,0.0,-0.00031,0.00015,9,4.8,6
44.579,2735727.761,0.0,-0.00031,0.00015,9,4.8,6
44.597,2735727.78,0.00061,0.00031,-0.00046,9,4.8,6
44.619,2735727.799,-0.00061,0.00031,-0.00046,9,4.8,6
44.639,2735727.818,0.00061,-0.00031,-0.00046,9,4.8,6
44.66,2735727.837,-0.00061,-0.00031,-0.00046,9,4.8,6
44.678,2735727.856,-0.0,0.00031,0.00015,9,4.8,6
44.691,2735727.875,-0.00061,0.00031,0.00015,9,4.8,6
44.711,2735727.894,-0.0,0.00031,-0.00046,9,4.8,6
44.734,2735727.913,-0.00122,0.00031,0.00015,9,4.8,6
44.749,2735727.932,-0.0,0.00031,-0.00046,9,4.8,6
44.769,2735727.951,-0.00061,-0.00031,0.00015,9,4.8,6
44.791,2735727.97,-0.0,0.00031,-0.00046,9,4.8,6
44.807,2735727.989,0.00061,0.00031,0.00015,9,4.8,6
44.826,2735728.008,0.00061,0.00031,0.00015,9,4.8,6
44.845,2735728.027,-0.0,-0.00031,0.00015,9,4.8,6
44.867,2735728.046,0.00061,-0.00031,-0.00046,9,4.8,6
44.887,2735728.065,-0.0,-0.00031,-0.00046,9,4.8,6
44.902,2735728.084,-0.0,0.00031,-0.00046,9,4.8,6
44.919,2735728.103,-0.0,-0.00031,-0.00038,9,4.8,6
44.941,2735728.122,-0.00061,-0.00031,-0.00038,9,4.8,6
44.96,2735728.141,-0.0,0.00031,-0.00038,9,4.8,6
44.978,2735728.16,-0.0,0.00031,0.00023,9,4.8,6
44.995,2735728.179,0.00061,0.00031,0.00023,9,4.8,6
45.018,2735728.198,-0.0,-0.00031,0.00023,9,4.8,6
45.036,2735728.217,0.00061,0.00031,-0.00038,9,4.8,6
45.059,2735728.236,-0.00061,0.00031,0.00023,9,4.8,6
45.08,2735728.255,0.00061,0.00031,0.00023,9,4.8,6
