AppTimestamp(s),SensorTimestamp(s),Gyr_X,Gyr_Y,Gyr_Z,Label,Latitude,Longitude
0.076,2730088.69,0.08491,0.00504,-0.00176,4,3,6
0.077,2730088.709,-0.08674,-0.00412,0.00069,4,3,6
0.078,2730088.728,-0.1912,-0.00901,0.00252,4,3,6
0.083,2730088.747,-0.1631,-0.01512,0.00374,4,3,6
0.083,2730088.766,-0.01466,-0.00901,0.00313,4,3,6
0.095,2730088.785,0.15027,0.00932,8e-05,4,3,6
0.116,2730088.804,0.20891,0.01176,-0.00359,4,3,6
0.134,2730088.823,0.12706,0.00809,-0.0042,4,3,6
0.15,2730088.842,-0.03543,0.00504,-0.00237,4,3,6
0.17,2730088.861,-0.17776,-0.00596,0.00191,4,3,6
0.187,2730088.88,-0.20891,-0.0084,0.00557,4,3,6
0.207,2730088.899,-0.13255,-0.00596,0.00496,4,3,6
0.227,2730088.918,-0.00733,-0.00046,-0.00053,4,3,6
0.246,2730088.937,0.10262,0.00443,-0.0042,4,3,6
0.267,2730088.956,0.14966,0.00748,-0.00237,4,3,6
0.282,2730088.975,0.11606,0.00504,-0.00053,4,3,6
0.302,2730088.995,0.02566,0.00015,-0.00053,4,3,6
0.321,2730089.014,-0.06964,-0.00351,8e-05,4,3,6
0.34,2730089.033,-0.11789,-0.00412,0.0013,4,3,6
0.359,2730089.052,-0.09774,-0.00229,0.00191,4,3,6
0.378,2730089.071,-0.03054,0.00015,0.00069,4,3,6
0.397,2730089.09,0.04704,0.00137,-0.00176,4,3,6
0.416,2730089.109,0.08918,0.00137,-0.00115,4,3,6
0.436,2730089.128,0.08063,0.00199,8e-05,4,3,6
0.455,2730089.147,0.0281,0.00137,8e-05,4,3,6
0.474,2730089.166,-0.03299,0.00015,-0.00053,4,3,6
0.493,2730089.185,-0.07025,-0.00229,-0.00053,4,3,6
0.512,2730089.204,-0.06292,-0.00229,0.0013,4,3,6
0.532,2730089.223,-0.02382,-0.00168,0.0013,4,3,6
0.549,2730089.242,0.02382,0.00076,8e-05,4,3,6
0.569,2730089.261,0.05314,0.0026,-0.00115,4,3,6
0.587,2730089.28,0.04887,0.0026,-0.00115,4,3,6
0.606,2730089.299,0.01771,0.00076,8e-05,4,3,6
0.626,2730089.318,-0.02016,-0.00229,0.00069,4,3,6
0.645,2730089.337,-0.04276,-0.00229,0.00069,4,3,6
0.665,2730089.356,-0.03909,-0.00107,8e-05,4,3,6
0.685,2730089.375,-0.01161,0.00015,8e-05,4,3,6
0.701,2730089.394,0.0171,0.00137,-0.00053,4,3,6
0.721,2730089.413,0.03421,0.00137,-0.00115,4,3,6
0.74,2730089.432,0.02749,0.00015,-0.00115,4,3,6
0.759,2730089.451,0.00794,0.00015,8e-05,4,3,6
0.778,2730089.47,-0.01588,-0.00046,8e-05,4,3,6
0.797,2730089.489,-0.02688,-0.00046,8e-05,4,3,6
0.815,2730089.508,-0.02138,-0.00107,8e-05,4,3,6
0.834,2730089.527,-0.00305,-0.00107,8e-05,4,3,6
0.855,2730089.546,0.01466,0.00015,8e-05,4,3,6
0.873,2730089.565,0.02077,0.00076,8e-05,4,3,6
0.892,2730089.584,0.0171,0.00199,8e-05,4,3,6
0.911,2730089.603,-0.00122,0.00321,-0.00176,4,3,6
0.929,2730089.622,-0.00367,-0.01023,8e-05,4,3,6
0.949,2730089.641,-0.01833,0.01237,8e-05,4,3,6
0.969,2730089.66,-0.01344,-0.01451,0.00069,4,3,6
0.987,2730089.679,-0.00794,0.0087,-0.00053,4,3,6
1.007,2730089.698,0.00733,-0.00473,8e-05,4,3,6
1.025,2730089.717,0.011,0.00199,-0.00053,4,3,6
1.045,2730089.736,0.01222,0.00015,8e-05,4,3,6
1.064,2730089.755,0.00122,0.00137,8e-05,4,3,6
1.083,2730089.774,-0.00672,-0.00107,-0.00053,4,3,6
1.1,2730089.793,-0.00977,0.00015,8e-05,4,3,6
1.121,2730089.812,-0.00611,-0.00046,8e-05,4,3,6
1.14,2730089.831,0.00061,0.00015,8e-05,4,3,6
1.164,2730089.85,0.00489,0.00076,8e-05,4,3,6
1.178,2730089.869,0.00672,0.00076,-0.00053,4,3,6
1.197,2730089.888,0.00305,-0.00107,8e-05,4,3,6
1.216,2730089.908,-0.0,0.00076,0.00069,4,3,6
1.235,2730089.927,-0.00428,-0.00107,8e-05,4,3,6
1.254,2730089.946,-0.00428,0.00076,-0.00053,4,3,6
1.274,2730089.965,-0.00305,0.00015,8e-05,4,3,6
1.292,2730089.984,-0.0,-0.00046,8e-05,4,3,6
1.31,2730090.003,0.00305,-0.00046,-0.00053,4,3,6
1.329,2730090.022,0.00367,0.00015,-0.00053,4,3,6
1.348,2730090.041,0.00244,0.00015,8e-05,4,3,6
1.368,2730090.06,-0.00122,0.00015,0.00069,4,3,6
1.385,2730090.079,-0.00305,-0.00046,0.00069,4,3,6
1.408,2730090.098,-0.00428,-0.00107,0.00069,4,3,6
1.425,2730090.117,-0.00061,-0.00046,8e-05,4,3,6
1.445,2730090.136,0.00122,-0.00046,8e-05,4,3,6
1.463,2730090.155,0.00428,0.00015,0.00069,4,3,6
1.484,2730090.174,0.00122,0.00015,8e-05,4,3,6
1.501,2730090.193,-0.0,0.00015,8e-05,4,3,6
1.521,2730090.212,-0.00244,0.00015,8e-05,4,3,6
1.539,2730090.231,-0.00244,0.00015,0.00069,4,3,6
1.558,2730090.25,-0.00122,-0.00046,8e-05,4,3,6
1.577,2730090.269,0.00122,0.00076,8e-05,4,3,6
1.598,2730090.288,0.00183,0.00015,8e-05,4,3,6
1.615,2730090.307,0.00061,0.00015,8e-05,4,3,6
1.634,2730090.326,-0.0,-0.00046,8e-05,4,3,6
1.653,2730090.345,-0.00183,-0.00046,8e-05,4,3,6
1.672,2730090.364,-0.00061,-0.00046,0.00069,4,3,6
1.691,2730090.383,-0.00061,-0.00046,8e-05,4,3,6
1.71,2730090.402,0.00061,-0.00046,8e-05,4,3,6
1.729,2730090.421,-0.0,-0.00107,8e-05,4,3,6
1.749,2730090.44,-0.0,0.00015,-0.00053,4,3,6
1.768,2730090.459,-0.00122,-0.00046,-0.00115,4,3,6
1.787,2730090.478,0.00061,-0.00046,-0.00053,4,3,6
1.805,2730090.497,0.00122,-0.00107,8e-05,4,3,6
1.827,2730090.516,0.00122,-0.00107,8e-05,4,3,6
1.844,2730090.535,-0.00122,-0.00046,-0.00053,4,3,6
1.866,2730090.554,-0.00244,0.00076,8e-05,4,3,6
1.883,2730090.573,-0.00183,0.00076,8e-05,4,3,6
1.901,2730090.592,0.00061,0.00076,-0.00053,4,3,6
1.919,2730090.611,0.00367,-0.00046,-0.00053,4,3,6
1.939,2730090.63,0.00183,-0.00046,8e-05,4,3,6
1.957,2730090.649,-0.0,0.00076,8e-05,4,3,6
1.976,2730090.668,-0.00305,0.00076,8e-05,4,3,6
1.995,2730090.687,-0.00183,0.00015,-0.00053,4,3,6
2.017,2730090.706,-0.00122,-0.00046,8e-05,4,3,6
2.033,2730090.725,0.00244,-0.00046,8e-05,4,3,6
2.053,2730090.744,0.00183,0.00015,-0.00053,4,3,6
2.09,2730090.763,0.00122,0.00076,-0.00053,4,3,6
2.092,2730090.782,-0.00122,0.00015,-0.00053,4,3,6
2.109,2730090.802,-0.00244,0.00015,8e-05,4,3,6
2.128,2730090.821,-0.00122,-0.00107,8e-05,4,3,6
2.146,2730090.84,0.00061,-0.00046,0.00069,4,3,6
2.166,2730090.859,0.00183,0.00076,8e-05,4,3,6
2.186,2730090.878,0.00061,0.00137,-0.00053,4,3,6
2.206,2730090.897,0.00061,0.00137,8e-05,4,3,6
2.223,2730090.916,-0.00122,-0.00046,8e-05,4,3,6
2.243,2730090.935,-0.00061,0.00015,8e-05,4,3,6
2.261,2730090.954,-0.00122,0.00015,8e-05,4,3,6
2.281,2730090.973,-0.0,0.00076,8e-05,4,3,6
2.3,2730090.992,0.00061,0.00015,8e-05,4,3,6
2.318,2730091.011,0.00061,0.00015,8e-05,4,3,6
2.338,2730091.03,-0.00061,-0.00046,8e-05,4,3,6
2.357,2730091.049,0.00069,-0.00038,0.00015,4,3,6
2.376,2730091.068,-0.00053,0.00023,0.00015,4,3,6
2.395,2730091.087,-0.00115,0.00084,0.00076,4,3,6
2.415,2730091.106,-0.00053,0.00023,0.00023,4,3,6
2.432,2730091.125,-0.00053,-0.00107,-0.00038,4,3,6
2.451,2730091.144,0.0013,-0.00046,0.00023,4,3,6
2.471,2730091.163,0.00069,0.00015,0.00023,4,3,6
2.49,2730091.182,0.00069,0.00076,-0.00046,4,3,6
2.509,2730091.201,-0.00115,8e-05,0.00015,4,3,6
2.527,2730091.22,-0.00053,8e-05,0.00015,4,3,6
2.547,2730091.239,-0.00115,-0.00053,0.00015,4,3,6
2.567,2730091.258,0.00069,0.00069,0.00076,4,3,6
2.585,2730091.277,0.00069,0.00069,0.00076,4,3,6
2.63,2730091.296,0.0013,8e-05,0.00076,4,3,6
2.63,2730091.315,0.00069,8e-05,0.00076,4,3,6
2.642,2730091.334,-0.00053,-0.00061,0.00015,4,3,6
2.664,2730091.353,8e-05,0.0,0.00015,4,3,6
2.681,2730091.372,8e-05,0.0,0.00015,4,3,6
2.7,2730091.391,8e-05,0.0,8e-05,4,3,6
2.719,2730091.41,8e-05,-0.00061,0.00069,4,3,6
2.739,2730091.429,8e-05,-0.00061,8e-05,4,3,6
2.76,2730091.448,-0.00053,-0.00061,0.00069,4,3,6
2.777,2730091.467,8e-05,0.00061,8e-05,4,3,6
2.798,2730091.486,-0.00053,0.0,8e-05,4,3,6
2.817,2730091.505,0.00069,0.00061,0.0,4,3,6
2.833,2730091.524,-0.00053,-0.00061,0.0,4,3,6
2.853,2730091.543,0.00069,-0.00061,0.0,4,3,6
2.871,2730091.562,8e-05,-0.00061,-0.0,4,3,6
2.894,2730091.581,-0.00053,0.0,-0.0,4,3,6
2.908,2730091.6,-0.00053,-0.00061,-0.00061,4,3,6
2.927,2730091.619,-0.00115,-0.00122,-8e-05,4,3,6
2.947,2730091.638,0.00069,-0.00122,-8e-05,4,3,6
2.966,2730091.657,-0.00053,-0.00053,-8e-05,4,3,6
2.983,2730091.676,8e-05,8e-05,-8e-05,4,3,6
3.003,2730091.695,8e-05,8e-05,-8e-05,4,3,6
3.022,2730091.715,0.00069,8e-05,-8e-05,4,3,6
3.042,2730091.734,-0.00053,-0.00053,-8e-05,4,3,6
3.061,2730091.753,8e-05,-0.00053,-0.00069,4,3,6
3.085,2730091.772,8e-05,8e-05,-0.00069,4,3,6
3.098,2730091.791,8e-05,8e-05,-0.00069,4,3,6
3.118,2730091.81,8e-05,-0.00046,-0.00069,4,3,6
3.138,2730091.829,-0.00053,-0.00046,-0.00069,4,3,6
3.18,2730091.848,-0.00053,-0.00046,-8e-05,4,3,6
3.182,2730091.867,-0.00053,0.00015,-8e-05,4,3,6
3.195,2730091.886,8e-05,0.00015,-8e-05,4,3,6
3.213,2730091.905,-0.00053,0.00015,-8e-05,4,3,6
3.232,2730091.924,0.00069,0.00023,-8e-05,4,3,6
3.251,2730091.943,-0.00053,0.00023,-8e-05,4,3,6
3.271,2730091.962,0.00069,0.00023,-8e-05,4,3,6
3.29,2730091.981,-0.00115,-0.00038,-0.00069,4,3,6
3.309,2730092.0,0.00069,0.00023,-0.0,4,3,6
3.328,2730092.019,-0.00115,0.00023,-0.0,4,3,6
3.348,2730092.038,0.00015,0.00031,-0.0,4,3,6
3.366,2730092.057,0.00076,-0.00031,0.0,4,3,6
3.386,2730092.076,0.00015,0.00092,0.0,4,3,6
3.405,2730092.095,0.00015,0.00031,0.0,4,3,6
3.423,2730092.114,-0.00107,0.00031,-0.00053,4,3,6
3.444,2730092.133,-0.00046,0.00031,-0.00053,4,3,6
3.462,2730092.152,0.00015,-0.00031,-0.00053,4,3,6
3.482,2730092.171,0.00076,0.00031,8e-05,4,3,6
3.499,2730092.19,0.00015,0.00031,8e-05,4,3,6
3.524,2730092.209,0.00015,-0.00031,8e-05,4,3,6
3.537,2730092.228,-0.00046,0.00031,0.00015,4,3,6
3.556,2730092.247,0.00076,0.00031,0.00015,4,3,6
3.575,2730092.266,-0.00046,-0.00031,0.00015,4,3,6
3.598,2730092.285,0.00076,0.00031,-0.00046,4,3,6
3.612,2730092.304,-0.00046,0.00031,0.00015,4,3,6
3.632,2730092.323,0.00076,-0.00038,0.00076,4,3,6
3.651,2730092.342,-0.00046,-0.00038,0.00076,4,3,6
3.672,2730092.361,-0.00046,0.00023,0.00015,4,3,6
3.688,2730092.38,0.00015,0.00023,0.00015,4,3,6
3.708,2730092.399,-0.00107,0.00084,0.00015,4,3,6
3.73,2730092.418,0.00015,0.00023,0.00015,4,3,6
3.747,2730092.437,-0.00046,0.00023,0.00015,4,3,6
3.765,2730092.456,0.00076,-0.00038,0.00015,4,3,6
3.783,2730092.475,0.00015,0.00023,0.00015,4,3,6
3.803,2730092.494,0.00076,0.00015,0.00015,4,3,6
3.823,2730092.513,-0.00046,0.00015,0.00015,4,3,6
3.842,2730092.532,0.00076,0.00015,0.00015,4,3,6
3.861,2730092.551,0.00015,0.00015,0.00015,4,3,6
3.885,2730092.57,0.00015,0.00015,0.00015,4,3,6
3.904,2730092.589,0.00015,0.00015,0.00015,4,3,6
3.916,2730092.608,0.00015,-0.00046,0.00015,4,3,6
3.937,2730092.628,-0.00046,0.00015,-0.00046,4,3,6
3.956,2730092.647,0.00015,0.00015,8e-05,4,3,6
3.976,2730092.666,0.00015,-0.00046,8e-05,4,3,6
3.994,2730092.685,0.00015,0.00015,8e-05,4,3,6
4.014,2730092.704,0.00076,0.00015,8e-05,4,3,6
4.031,2730092.723,-0.00046,0.00015,8e-05,4,3,6
4.052,2730092.742,0.00015,0.00015,8e-05,4,3,6
4.07,2730092.761,-0.00046,0.00015,8e-05,4,3,6
4.088,2730092.78,0.00076,-0.00046,8e-05,4,3,6
4.107,2730092.799,0.00015,0.00015,0.00069,4,3,6
4.127,2730092.818,0.00015,0.00015,-0.00053,4,3,6
4.147,2730092.837,-0.00053,0.00015,-0.00053,4,3,6
4.165,2730092.856,0.00069,0.00015,0.0,4,3,6
4.183,2730092.875,8e-05,8e-05,0.0,4,3,6
4.202,2730092.894,-0.00053,-0.00053,0.0,4,3,6
4.222,2730092.913,8e-05,8e-05,0.00061,4,3,6
4.242,2730092.932,8e-05,8e-05,0.00061,4,3,6
4.265,2730092.951,0.00069,8e-05,-0.00061,4,3,6
4.282,2730092.97,-0.00053,-0.00053,0.0,4,3,6
4.298,2730092.989,8e-05,8e-05,0.0,4,3,6
4.316,2730093.008,-0.00053,-0.00053,0.0,4,3,6
4.335,2730093.027,8e-05,8e-05,0.0,4,3,6
4.355,2730093.046,-0.00053,-0.00053,0.00061,4,3,6
4.375,2730093.065,0.00069,8e-05,0.0,4,3,6
4.395,2730093.084,-0.00053,8e-05,0.00061,4,3,6
4.411,2730093.103,8e-05,8e-05,0.0,4,3,6
4.431,2730093.122,-0.00053,8e-05,0.0,4,3,6
4.451,2730093.141,0.00069,0.00069,0.0,4,3,6
4.471,2730093.16,0.00069,8e-05,0.00061,4,3,6
4.488,2730093.179,8e-05,0.00015,0.0,4,3,6
4.508,2730093.198,8e-05,0.00015,0.0,4,3,6
4.527,2730093.217,-0.00053,0.00015,0.0,4,3,6
4.549,2730093.236,0.00069,0.00015,-0.0,4,3,6
4.565,2730093.255,-0.00053,0.00015,-0.0,4,3,6
4.587,2730093.274,-0.00053,0.00015,-0.0,4,3,6
4.602,2730093.293,-0.00053,-0.00046,-0.0,4,3,6
4.625,2730093.312,8e-05,0.00015,-0.0,4,3,6
4.64,2730093.331,-0.00053,0.00015,-0.00061,4,3,6
4.66,2730093.35,0.00069,-0.00046,-0.0,4,3,6
4.679,2730093.369,8e-05,-0.00046,-0.0,4,3,6
4.697,2730093.388,0.00069,8e-05,-0.0,4,3,6
4.717,2730093.407,8e-05,8e-05,-0.00069,4,3,6
4.736,2730093.426,8e-05,8e-05,-8e-05,4,3,6
4.755,2730093.445,0.00069,-0.00053,-8e-05,4,3,6
4.773,2730093.464,8e-05,8e-05,-8e-05,4,3,6
4.793,2730093.483,0.00069,8e-05,-8e-05,4,3,6
4.811,2730093.502,-0.00053,8e-05,-0.00069,4,3,6
4.83,2730093.522,0.00069,8e-05,-8e-05,4,3,6
4.85,2730093.541,-0.00053,-0.00053,-8e-05,4,3,6
4.872,2730093.56,0.00069,-0.00053,-8e-05,4,3,6
4.887,2730093.579,-0.00053,-0.00053,-8e-05,4,3,6
4.908,2730093.598,8e-05,8e-05,-8e-05,4,3,6
4.925,2730093.617,-0.00053,0.00069,-8e-05,4,3,6
4.951,2730093.636,0.00069,8e-05,-8e-05,4,3,6
4.964,2730093.655,8e-05,8e-05,-0.0,4,3,6
4.985,2730093.674,8e-05,8e-05,0.00061,4,3,6
5.0,2730093.693,8e-05,8e-05,-0.0,4,3,6
5.021,2730093.712,-0.00053,8e-05,-0.0,4,3,6
5.04,2730093.731,8e-05,0.00015,-0.00061,4,3,6
5.059,2730093.75,-0.00115,0.00015,-0.0,4,3,6
5.085,2730093.769,8e-05,0.00015,-0.00061,4,3,6
5.098,2730093.788,-0.00061,-0.00046,0.0,4,3,6
5.116,2730093.807,0.00061,0.00076,0.0,4,3,6
5.136,2730093.826,0.0,0.00015,-0.00061,4,3,6
5.175,2730093.845,0.00061,0.00015,0.0,4,3,6
5.176,2730093.864,-0.00061,-0.00046,0.0,4,3,6
5.192,2730093.883,0.0,-0.00046,0.0,4,3,6
5.21,2730093.902,-0.00061,0.00015,8e-05,4,3,6
5.229,2730093.921,-0.00061,0.00015,8e-05,4,3,6
5.248,2730093.94,-0.00061,-0.00046,-0.00053,4,3,6
5.267,2730093.959,-0.00061,-0.00046,-0.00053,4,3,6
5.288,2730093.978,0.00061,0.00015,8e-05,4,3,6
5.306,2730093.997,0.0,-0.00046,-0.00053,4,3,6
5.325,2730094.016,0.00061,0.00076,-0.00053,4,3,6
5.344,2730094.035,8e-05,0.00015,8e-05,4,3,6
5.363,2730094.054,0.00069,0.00015,8e-05,4,3,6
5.386,2730094.073,8e-05,-0.00046,8e-05,4,3,6
5.402,2730094.092,8e-05,0.00015,8e-05,4,3,6
5.421,2730094.111,8e-05,-0.00046,8e-05,4,3,6
5.439,2730094.13,8e-05,-0.00046,-0.00053,4,3,6
5.462,2730094.149,-0.00053,0.00015,8e-05,4,3,6
5.48,2730094.168,0.00069,0.00015,8e-05,4,3,6
5.496,2730094.187,-0.00053,-0.00046,-0.00053,4,3,6
5.515,2730094.206,8e-05,0.00076,8e-05,4,3,6
5.534,2730094.225,0.00069,0.00015,0.00015,4,3,6
5.554,2730094.244,8e-05,-0.00046,0.00076,4,3,6
5.572,2730094.263,0.00069,-0.00046,0.00015,4,3,6
5.592,2730094.282,8e-05,0.00015,-0.00046,4,3,6
5.609,2730094.301,0.0013,0.00015,-0.00046,4,3,6
5.631,2730094.32,-0.00053,-0.00046,0.00015,4,3,6
5.647,2730094.339,8e-05,0.00015,-0.00046,4,3,6
5.671,2730094.358,-0.00053,-0.00046,-0.00046,4,3,6
5.687,2730094.377,8e-05,-0.00046,-0.00046,4,3,6
5.71,2730094.396,8e-05,0.00015,0.00015,4,3,6
5.725,2730094.415,-0.00053,0.00015,0.00015,4,3,6
5.744,2730094.435,-0.00053,-0.00046,0.00015,4,3,6
5.767,2730094.454,8e-05,0.00015,0.00015,4,3,6
5.782,2730094.473,-0.00053,-0.00046,0.00015,4,3,6
5.8,2730094.492,-0.00053,0.00015,-0.00046,4,3,6
5.819,2730094.511,0.00069,0.00015,0.00015,4,3,6
5.842,2730094.53,-0.00061,0.00023,0.00015,4,3,6
5.857,2730094.549,0.0,0.00023,0.00015,4,3,6
5.881,2730094.568,-0.00061,-0.00038,0.00023,4,3,6
5.895,2730094.587,0.00061,0.00023,-0.00038,4,3,6
5.914,2730094.606,0.0,-0.00038,0.00023,4,3,6
5.934,2730094.625,0.0,0.00023,0.00023,4,3,6
5.953,2730094.644,-0.00061,-0.00038,0.00023,4,3,6
5.972,2730094.663,0.0,-0.00038,0.00023,4,3,6
5.991,2730094.682,0.0,0.00023,0.00023,4,3,6
6.009,2730094.701,0.0,-0.00038,0.00084,4,3,6
6.027,2730094.72,0.0,0.00023,0.00015,4,3,6
6.048,2730094.739,0.0,0.00023,0.00015,4,3,6
6.069,2730094.758,0.0,0.00023,0.00015,4,3,6
6.086,2730094.777,-0.00061,0.00023,0.00015,4,3,6
6.106,2730094.796,8e-05,0.00023,0.00015,4,3,6
6.125,2730094.815,8e-05,-0.00038,0.00015,4,3,6
6.143,2730094.834,0.0013,-0.00038,-0.00046,4,3,6
6.162,2730094.853,-0.00053,0.00023,0.00015,4,3,6
6.181,2730094.872,0.00069,0.00023,0.00015,4,3,6
6.2,2730094.891,8e-05,0.00023,0.00015,4,3,6
6.22,2730094.91,0.00069,0.00023,0.00015,4,3,6
6.241,2730094.929,-0.00053,-0.00038,0.00015,4,3,6
6.261,2730094.948,-0.00053,0.00023,0.00015,4,3,6
6.279,2730094.967,8e-05,-0.00038,-0.00046,4,3,6
6.295,2730094.986,0.00069,-0.00038,-0.00046,4,3,6
6.318,2730095.005,0.00069,0.00084,0.00015,4,3,6
6.333,2730095.024,-0.00053,0.00023,0.00015,4,3,6
6.352,2730095.043,8e-05,0.00084,8e-05,4,3,6
6.372,2730095.062,-0.00053,0.00023,8e-05,4,3,6
6.394,2730095.081,0.00069,0.00023,8e-05,4,3,6
6.408,2730095.1,8e-05,-0.00038,-0.00053,4,3,6
6.432,2730095.119,0.00069,0.00023,-0.00053,4,3,6
6.448,2730095.138,-0.00115,-0.00038,-0.00053,4,3,6
6.466,2730095.157,8e-05,0.00023,8e-05,4,3,6
6.486,2730095.176,8e-05,-0.00038,0.00069,4,3,6
6.506,2730095.195,8e-05,-0.00038,8e-05,4,3,6
6.524,2730095.214,8e-05,0.00023,0.00069,4,3,6
6.547,2730095.233,-0.00053,0.00023,0.00069,4,3,6
6.562,2730095.252,0.0013,-0.00038,8e-05,4,3,6
6.585,2730095.271,0.00061,-0.00038,8e-05,4,3,6
6.604,2730095.29,0.00061,0.00084,8e-05,4,3,6
6.618,2730095.309,-0.00061,0.00023,-0.00053,4,3,6
6.64,2730095.328,0.0,0.00015,8e-05,4,3,6
6.66,2730095.348,0.0,-0.00046,0.00069,4,3,6
6.675,2730095.367,0.0,0.00015,-0.00053,4,3,6
6.694,2730095.386,0.0,-0.00046,8e-05,4,3,6
6.716,2730095.405,0.00122,0.00015,-0.00053,4,3,6
6.733,2730095.424,-0.0,0.00076,8e-05,4,3,6
6.752,2730095.443,-0.00061,0.00015,-0.00053,4,3,6
6.77,2730095.462,-0.00061,0.00076,-0.00053,4,3,6
6.789,2730095.481,-0.0,0.00015,8e-05,4,3,6
6.809,2730095.5,-0.0,0.00015,-0.00053,4,3,6
6.827,2730095.519,-0.00061,0.00076,-0.00053,4,3,6
6.851,2730095.538,-0.0,-0.00046,-0.00053,4,3,6
6.87,2730095.557,-0.00061,0.00015,-0.00053,4,3,6
6.887,2730095.576,0.00061,0.00015,-0.00053,4,3,6
6.904,2730095.595,-0.00061,0.00015,-0.00053,4,3,6
6.924,2730095.614,-0.0,0.00015,8e-05,4,3,6
6.942,2730095.633,-0.00061,-0.00046,8e-05,4,3,6
6.96,2730095.652,-0.0,-0.00046,-0.00053,4,3,6
6.982,2730095.671,-0.00061,-0.00046,8e-05,4,3,6
6.999,2730095.69,0.00061,0.00015,8e-05,4,3,6
7.017,2730095.709,-0.00061,-0.00046,0.00015,4,3,6
7.038,2730095.728,-0.0,0.00015,0.00015,4,3,6
7.057,2730095.747,-0.00061,0.00015,0.00076,4,3,6
7.075,2730095.766,-0.00061,0.00015,0.00015,4,3,6
7.098,2730095.785,-0.0,0.00015,-0.00046,4,3,6
7.112,2730095.804,-0.00061,8e-05,0.00015,4,3,6
7.132,2730095.823,-0.0,8e-05,0.00015,4,3,6
7.151,2730095.842,-0.00061,8e-05,0.00015,4,3,6
7.175,2730095.861,0.00061,8e-05,0.00015,4,3,6
7.188,2730095.88,0.0,-0.00053,0.00015,4,3,6
7.208,2730095.899,0.0,8e-05,-0.00038,4,3,6
7.227,2730095.918,-0.00053,-0.00053,0.00023,4,3,6
7.247,2730095.937,0.00069,8e-05,-0.00038,4,3,6
7.265,2730095.956,-0.00053,8e-05,0.00023,4,3,6
7.283,2730095.975,-0.00053,8e-05,-0.00038,4,3,6
7.303,2730095.994,-0.00053,8e-05,-0.00038,4,3,6
7.322,2730096.013,8e-05,8e-05,-0.00038,4,3,6
7.341,2730096.032,0.00069,-0.00053,0.00023,4,3,6
7.36,2730096.051,0.00076,-0.00053,0.00023,4,3,6
7.385,2730096.07,0.00015,8e-05,0.00023,4,3,6
7.397,2730096.089,-0.00107,8e-05,0.00023,4,3,6
7.418,2730096.108,0.00015,8e-05,0.00084,4,3,6
7.437,2730096.127,0.00015,-0.00053,0.00023,4,3,6
7.457,2730096.146,0.00137,8e-05,0.00023,4,3,6
7.476,2730096.165,0.00015,-0.00046,0.00023,4,3,6
7.494,2730096.184,0.00015,-0.00046,0.00023,4,3,6
7.513,2730096.203,0.00015,-0.00046,-0.00038,4,3,6
7.531,2730096.222,0.00076,0.00015,-0.00038,4,3,6
7.55,2730096.242,0.00015,0.00015,0.00084,4,3,6
7.57,2730096.261,-0.00046,0.00015,0.00084,4,3,6
7.589,2730096.28,0.00076,-0.00046,0.00023,4,3,6
7.611,2730096.299,0.00015,-0.00046,0.00015,4,3,6
7.63,2730096.318,0.00076,0.00015,0.00015,4,3,6
7.647,2730096.337,-0.00046,0.00076,0.00015,4,3,6
7.668,2730096.356,0.00015,0.00015,-0.00046,4,3,6
7.684,2730096.375,-0.00046,-0.00046,0.00015,4,3,6
7.704,2730096.394,0.00076,0.00015,0.00076,4,3,6
7.722,2730096.413,-0.00046,-0.00046,0.00076,4,3,6
7.744,2730096.432,0.00069,0.00015,0.00015,4,3,6
7.764,2730096.451,-0.00053,-0.00046,0.00015,4,3,6
7.779,2730096.47,8e-05,0.00015,0.00015,4,3,6
7.802,2730096.489,-0.00053,0.00023,0.00015,4,3,6
7.819,2730096.508,8e-05,0.00084,-0.00046,4,3,6
7.835,2730096.527,8e-05,0.00023,8e-05,4,3,6
7.859,2730096.546,8e-05,0.00023,8e-05,4,3,6
7.875,2730096.565,0.00069,0.00023,8e-05,4,3,6
7.893,2730096.584,8e-05,-0.00038,8e-05,4,3,6
7.911,2730096.603,0.0,0.00023,8e-05,4,3,6
7.93,2730096.622,0.0,0.00023,8e-05,4,3,6
7.952,2730096.641,0.00061,0.00023,-0.00053,4,3,6
7.971,2730096.66,-0.00122,-0.00038,8e-05,4,3,6
7.988,2730096.679,0.00061,-0.00038,0.00069,4,3,6
8.007,2730096.698,0.0,-0.00038,0.0,4,3,6
8.03,2730096.717,0.00061,0.00023,0.0,4,3,6
8.045,2730096.736,-0.0,0.00023,0.0,4,3,6
8.064,2730096.755,0.00061,0.00023,-0.00061,4,3,6
8.082,2730096.774,-0.0,0.00084,0.0,4,3,6
8.101,2730096.793,-0.0,0.00023,-0.00061,4,3,6
8.12,2730096.812,-0.00061,0.00023,0.0,4,3,6
8.14,2730096.831,-0.00061,0.00015,0.0,4,3,6
8.159,2730096.85,0.00061,0.00015,0.0,4,3,6
8.178,2730096.869,-0.0,0.00015,-0.0,4,3,6
8.199,2730096.888,0.00061,0.00015,-0.00061,4,3,6
8.216,2730096.907,-0.00061,0.00015,-0.0,4,3,6
8.235,2730096.926,0.00061,0.00015,0.00061,4,3,6
8.257,2730096.945,-0.00061,0.00015,0.0,4,3,6
8.275,2730096.964,-0.0,-0.00046,0.0,4,3,6
8.296,2730096.983,-0.00061,-0.00046,0.0,4,3,6
8.311,2730097.002,0.00061,0.00015,-0.00061,4,3,6
8.331,2730097.021,-0.0,0.00015,0.0,4,3,6
8.348,2730097.04,-0.0,0.00015,0.0,4,3,6
8.368,2730097.059,-0.0,0.00015,0.0,4,3,6
8.388,2730097.078,-0.0,-0.00046,0.0,4,3,6
8.409,2730097.097,-0.0,-0.00046,0.0,4,3,6
8.426,2730097.116,-0.00061,8e-05,0.0,4,3,6
8.445,2730097.135,-0.0,-0.00053,8e-05,4,3,6
8.468,2730097.155,-0.00061,8e-05,8e-05,4,3,6
8.486,2730097.174,0.00061,8e-05,8e-05,4,3,6
8.502,2730097.193,-0.00122,8e-05,8e-05,4,3,6
8.521,2730097.212,0.00061,8e-05,8e-05,4,3,6
8.54,2730097.231,-0.0,8e-05,8e-05,4,3,6
8.562,2730097.25,-0.0,-0.00053,0.00069,4,3,6
8.578,2730097.269,-0.00061,8e-05,8e-05,4,3,6
8.597,2730097.288,-0.0,8e-05,8e-05,4,3,6
8.615,2730097.307,0.00061,8e-05,8e-05,4,3,6
8.635,2730097.326,-0.0,8e-05,8e-05,4,3,6
8.655,2730097.345,0.00061,-0.00053,8e-05,4,3,6
8.672,2730097.364,0.0,8e-05,8e-05,4,3,6
8.691,2730097.383,0.00122,8e-05,0.00069,4,3,6
8.711,2730097.402,0.0,8e-05,0.00069,4,3,6
8.731,2730097.421,0.0,0.00015,8e-05,4,3,6
8.749,2730097.44,-0.00122,0.00015,8e-05,4,3,6
8.766,2730097.459,0.0,0.00076,8e-05,4,3,6
8.787,2730097.478,-0.00061,0.00015,0.0,4,3,6
8.807,2730097.497,0.00061,0.00015,0.0,4,3,6
8.826,2730097.516,0.0,0.00015,0.0,4,3,6
8.846,2730097.535,0.0,0.00015,0.0,4,3,6
8.865,2730097.554,-0.00061,-0.00046,-0.00061,4,3,6
8.885,2730097.573,-0.00061,0.00015,0.0,4,3,6
8.904,2730097.592,0.0,-0.00046,0.0,4,3,6
8.92,2730097.611,-0.00061,0.00015,-0.0,4,3,6
8.94,2730097.63,0.0,0.00015,-0.0,4,3,6
8.961,2730097.649,-0.00061,0.00015,0.00061,4,3,6
8.977,2730097.668,0.00122,-0.00046,-0.0,4,3,6
8.999,2730097.687,-0.00061,0.00015,-0.0,4,3,6
9.018,2730097.706,0.0,0.00015,-0.00061,4,3,6
9.033,2730097.725,-0.00061,0.00015,-0.00061,4,3,6
9.054,2730097.744,0.0,0.00076,-8e-05,4,3,6
9.072,2730097.763,8e-05,-0.00053,-8e-05,4,3,6
9.099,2730097.782,0.0013,-0.00053,-0.00069,4,3,6
9.109,2730097.801,8e-05,8e-05,-8e-05,4,3,6
9.129,2730097.82,8e-05,8e-05,-8e-05,4,3,6
9.15,2730097.839,0.00069,-0.00053,-8e-05,4,3,6
9.174,2730097.858,-0.00053,-0.00053,-8e-05,4,3,6
9.187,2730097.877,0.00069,-0.00053,-8e-05,4,3,6
9.206,2730097.896,-0.00053,8e-05,-8e-05,4,3,6
9.224,2730097.915,8e-05,-0.00053,-0.00061,4,3,6
9.244,2730097.934,-0.00115,-0.00053,-0.00061,4,3,6
9.262,2730097.953,8e-05,8e-05,-0.0,4,3,6
9.282,2730097.972,-0.00053,8e-05,-0.00061,4,3,6
9.304,2730097.991,8e-05,8e-05,-0.00061,4,3,6
9.319,2730098.01,8e-05,-0.00053,-0.0,4,3,6
9.338,2730098.029,0.00069,8e-05,0.0,4,3,6
9.358,2730098.049,8e-05,-0.00053,-0.00061,4,3,6
9.377,2730098.068,-0.00053,-0.00046,-0.00061,4,3,6
9.4,2730098.087,-0.00053,0.00015,0.0,4,3,6
9.415,2730098.106,8e-05,0.00015,-0.00053,4,3,6
9.432,2730098.125,0.00069,0.00015,-0.00053,4,3,6
9.453,2730098.144,0.00069,-0.00046,8e-05,4,3,6
9.472,2730098.163,0.00069,0.00076,8e-05,4,3,6
9.494,2730098.182,-0.00053,0.00015,8e-05,4,3,6
9.51,2730098.201,8e-05,0.00015,8e-05,4,3,6
9.528,2730098.22,-0.00053,0.00015,8e-05,4,3,6
9.548,2730098.239,0.00069,0.00015,0.00015,4,3,6
9.572,2730098.258,8e-05,-0.00038,0.00015,4,3,6
9.587,2730098.277,8e-05,0.00084,0.00076,4,3,6
9.606,2730098.296,8e-05,-0.00038,0.00015,4,3,6
9.625,2730098.315,0.00069,0.00023,0.00015,4,3,6
9.644,2730098.334,8e-05,0.00023,0.00015,4,3,6
9.662,2730098.353,0.00069,0.00023,0.00015,4,3,6
9.682,2730098.372,0.00069,0.00023,0.00015,4,3,6
9.7,2730098.391,8e-05,-0.00038,0.00023,4,3,6
9.719,2730098.41,8e-05,-0.00038,0.00084,4,3,6
9.738,2730098.429,-0.00053,-0.00038,0.00023,4,3,6
9.756,2730098.448,0.00069,-0.00038,-0.00038,4,3,6
9.776,2730098.467,8e-05,-0.00038,0.00023,4,3,6
9.795,2730098.486,0.00061,0.00023,0.00023,4,3,6
9.814,2730098.505,-0.00061,0.00023,0.00023,4,3,6
9.833,2730098.524,0.00061,0.00023,0.00023,4,3,6
9.852,2730098.543,-0.00061,-0.00038,-0.00046,4,3,6
9.871,2730098.562,0.00061,0.00023,0.00015,4,3,6
9.891,2730098.581,-0.00061,0.00023,0.00015,4,3,6
9.908,2730098.6,0.00061,-0.00038,0.00015,4,3,6
9.93,2730098.619,-0.0,0.00023,0.00015,4,3,6
9.948,2730098.638,-0.0,-0.00038,0.00015,4,3,6
9.969,2730098.657,0.00061,-0.00038,0.00015,4,3,6
9.984,2730098.676,-0.00069,0.00023,0.00015,4,3,6
10.005,2730098.695,-8e-05,0.00023,0.00076,4,3,6
10.025,2730098.714,-0.00069,0.00023,8e-05,4,3,6
10.043,2730098.733,-8e-05,-0.00038,-0.00053,4,3,6
10.062,2730098.752,-0.00069,-0.00038,8e-05,4,3,6
10.087,2730098.771,-8e-05,0.00023,8e-05,4,3,6
10.1,2730098.79,-0.00069,-0.00038,-0.00053,4,3,6
10.117,2730098.809,-8e-05,0.00023,8e-05,4,3,6
10.137,2730098.828,-8e-05,-0.00038,8e-05,4,3,6
10.157,2730098.847,-8e-05,-0.00038,8e-05,4,3,6
10.175,2730098.866,-8e-05,-0.00038,-0.00053,4,3,6
10.194,2730098.885,-8e-05,0.00023,8e-05,4,3,6
10.217,2730098.904,-8e-05,0.00084,0.0,4,3,6
10.232,2730098.923,-8e-05,0.00023,0.00061,4,3,6
10.252,2730098.942,-8e-05,0.00084,0.0,4,3,6
10.271,2730098.962,-0.00069,0.00023,0.0,4,3,6
10.289,2730098.981,0.00053,0.00084,0.0,4,3,6
10.308,2730099.0,-0.00069,-0.00038,0.0,4,3,6
10.328,2730099.019,0.00053,-0.00038,-0.00061,4,3,6
10.349,2730099.038,-0.0,0.00023,0.0,4,3,6
10.366,2730099.057,0.00061,0.00023,0.0,4,3,6
10.386,2730099.076,-0.00122,-0.00038,0.0,4,3,6
10.404,2730099.095,-0.0,-0.00038,0.0,4,3,6
10.423,2730099.114,-0.0,0.00023,0.0,4,3,6
10.446,2730099.133,0.0,0.00023,-0.00061,4,3,6
10.461,2730099.152,0.0,0.00023,-0.00061,4,3,6
10.485,2730099.171,0.0,0.00023,-0.00053,4,3,6
10.504,2730099.19,0.0,0.00023,8e-05,4,3,6
10.516,2730099.209,0.0,0.00023,8e-05,4,3,6
10.536,2730099.228,0.00069,0.00023,8e-05,4,3,6
10.555,2730099.247,-0.00053,0.00084,-0.00053,4,3,6
10.575,2730099.266,0.00069,-0.00038,8e-05,4,3,6
10.592,2730099.285,8e-05,0.00023,8e-05,4,3,6
10.613,2730099.304,8e-05,0.00023,8e-05,4,3,6
10.631,2730099.323,8e-05,-0.00038,8e-05,4,3,6
10.652,2730099.342,8e-05,-0.00038,8e-05,4,3,6
10.672,2730099.361,8e-05,-0.00046,-0.00053,4,3,6
10.689,2730099.38,-0.00053,0.00015,-0.00053,4,3,6
10.71,2730099.399,8e-05,0.00015,8e-05,4,3,6
10.728,2730099.418,8e-05,-0.00046,8e-05,4,3,6
10.747,2730099.437,0.00069,0.00015,8e-05,4,3,6
10.767,2730099.456,8e-05,0.00076,8e-05,4,3,6
10.787,2730099.475,0.00069,0.00015,8e-05,4,3,6
10.803,2730099.494,-0.00053,-0.00046,8e-05,4,3,6
10.825,2730099.513,0.00069,0.00015,8e-05,4,3,6
10.842,2730099.532,-0.00053,0.00015,-0.00046,4,3,6
10.861,2730099.551,0.00069,-0.00046,-0.00046,4,3,6
10.88,2730099.57,-0.00061,0.00015,0.00015,4,3,6
10.902,2730099.589,0.0,-0.00046,0.00076,4,3,6
10.918,2730099.608,-0.00061,0.00015,0.00076,4,3,6
10.937,2730099.627,-0.00061,-0.00046,0.00015,4,3,6
10.959,2730099.646,-0.00061,-0.00046,0.00015,4,3,6
10.974,2730099.665,-0.00061,0.00015,0.00015,4,3,6
10.994,2730099.684,0.00061,0.00015,0.00015,4,3,6
11.012,2730099.703,0.0,-0.00046,-0.00046,4,3,6
11.03,2730099.722,-0.00061,0.00015,-0.00046,4,3,6
11.052,2730099.741,0.0,0.00015,-0.00046,4,3,6
11.07,2730099.76,0.00061,0.00015,-0.00046,4,3,6
11.088,2730099.779,-0.00061,0.00015,-0.00046,4,3,6
11.106,2730099.798,0.0,0.00015,-0.00046,4,3,6
11.128,2730099.817,0.0,0.00015,-0.00046,4,3,6
11.147,2730099.836,0.0,0.00015,0.00015,4,3,6
11.17,2730099.855,-0.00061,0.00015,0.00015,4,3,6
11.183,2730099.875,0.0,0.00015,-0.00046,4,3,6
11.202,2730099.894,0.0,0.00015,0.00015,4,3,6
11.222,2730099.913,0.0,0.00015,0.00015,4,3,6
11.24,2730099.932,8e-05,0.00015,0.00015,4,3,6
11.26,2730099.951,8e-05,0.00015,0.00015,4,3,6
11.279,2730099.97,8e-05,0.00015,0.00015,4,3,6
11.298,2730099.989,8e-05,0.00015,0.00015,4,3,6
11.319,2730100.008,0.00069,0.00076,0.00015,4,3,6
11.336,2730100.027,8e-05,0.00015,0.00076,4,3,6
11.354,2730100.046,0.00069,0.00015,0.00076,4,3,6
11.374,2730100.065,-0.00053,0.00015,0.00015,4,3,6
11.392,2730100.084,0.00069,0.00015,0.00015,4,3,6
11.413,2730100.103,-0.00053,0.00015,0.00015,4,3,6
11.43,2730100.122,8e-05,-0.00046,0.00015,4,3,6
11.451,2730100.141,8e-05,0.00015,0.00015,4,3,6
11.471,2730100.16,8e-05,0.00076,-0.00046,4,3,6
11.487,2730100.179,-0.00053,0.00015,-0.00046,4,3,6
11.508,2730100.198,8e-05,-0.00046,0.00015,4,3,6
11.527,2730100.217,8e-05,-0.00046,0.00015,4,3,6
11.545,2730100.236,-0.00053,8e-05,0.00015,4,3,6
11.565,2730100.255,8e-05,8e-05,0.00015,4,3,6
11.587,2730100.274,-0.00053,0.00069,0.00076,4,3,6
11.602,2730100.293,0.0013,8e-05,-0.00046,4,3,6
11.621,2730100.312,8e-05,-0.00053,0.00015,4,3,6
11.641,2730100.331,0.00069,-0.00053,0.00015,4,3,6
11.662,2730100.35,-0.00115,8e-05,0.00015,4,3,6
11.679,2730100.369,8e-05,0.00069,0.00015,4,3,6
11.697,2730100.388,-0.00115,8e-05,0.00015,4,3,6
11.72,2730100.407,8e-05,8e-05,-0.00046,4,3,6
11.735,2730100.426,8e-05,8e-05,0.00015,4,3,6
11.758,2730100.445,8e-05,8e-05,8e-05,4,3,6
11.774,2730100.464,8e-05,0.0,8e-05,4,3,6
11.796,2730100.483,8e-05,0.0,8e-05,4,3,6
11.81,2730100.502,0.00069,-0.00061,8e-05,4,3,6
11.83,2730100.521,0.00069,-0.00061,8e-05,4,3,6
11.851,2730100.54,8e-05,0.0,8e-05,4,3,6
11.869,2730100.559,8e-05,-0.00061,0.00069,4,3,6
11.886,2730100.578,8e-05,0.0,8e-05,4,3,6
11.908,2730100.597,-0.00115,0.0,8e-05,4,3,6
11.929,2730100.616,8e-05,-0.00061,-0.00053,4,3,6
11.948,2730100.635,-0.00053,0.0,-0.00053,4,3,6
11.97,2730100.654,0.0013,0.0,-0.00053,4,3,6
11.986,2730100.673,8e-05,-0.00053,8e-05,4,3,6
12.003,2730100.692,8e-05,8e-05,8e-05,4,3,6
12.021,2730100.711,8e-05,8e-05,0.00069,4,3,6
12.039,2730100.73,8e-05,8e-05,0.00069,4,3,6
12.063,2730100.749,-0.00053,8e-05,8e-05,4,3,6
12.077,2730100.769,-0.00053,0.00069,-0.00053,4,3,6
12.097,2730100.788,-0.00053,8e-05,-0.00053,4,3,6
12.116,2730100.807,-0.00053,8e-05,8e-05,4,3,6
12.134,2730100.826,0.0013,8e-05,-0.00053,4,3,6
12.154,2730100.845,-0.00053,8e-05,-0.00053,4,3,6
12.173,2730100.864,0.00069,8e-05,0.00069,4,3,6
12.191,2730100.883,-0.00053,-0.00053,0.00069,4,3,6
12.212,2730100.902,8e-05,8e-05,0.00069,4,3,6
12.231,2730100.921,8e-05,8e-05,-0.00053,4,3,6
12.252,2730100.94,0.00069,-0.00053,-0.00053,4,3,6
12.27,2730100.959,-0.00053,8e-05,8e-05,4,3,6
12.288,2730100.978,8e-05,-0.00053,8e-05,4,3,6
12.311,2730100.997,8e-05,8e-05,8e-05,4,3,6
12.328,2730101.016,8e-05,-0.00053,8e-05,4,3,6
12.344,2730101.035,0.00069,-0.00053,8e-05,4,3,6
12.364,2730101.054,8e-05,0.00015,-0.00053,4,3,6
12.384,2730101.073,0.00069,0.00015,-0.00053,4,3,6
12.4,2730101.092,-0.00053,-0.00046,8e-05,4,3,6
12.42,2730101.111,8e-05,0.00015,-0.00053,4,3,6
12.439,2730101.13,0.00069,-0.00046,8e-05,4,3,6
12.459,2730101.149,8e-05,0.00076,8e-05,4,3,6
12.477,2730101.168,8e-05,0.00076,8e-05,4,3,6
12.499,2730101.187,8e-05,0.00015,8e-05,4,3,6
12.515,2730101.206,-0.00053,-0.00046,8e-05,4,3,6
12.533,2730101.225,0.00069,0.00015,8e-05,4,3,6
12.554,2730101.244,8e-05,0.00076,-0.00053,4,3,6
12.573,2730101.263,-0.00053,0.00015,8e-05,4,3,6
12.595,2730101.282,8e-05,0.00015,8e-05,4,3,6
12.61,2730101.301,-0.00053,0.00015,8e-05,4,3,6
12.627,2730101.32,8e-05,0.00076,8e-05,4,3,6
12.65,2730101.339,-0.00053,-0.00046,8e-05,4,3,6
12.669,2730101.358,0.00061,0.00015,-0.00053,4,3,6
12.685,2730101.377,0.0,0.00015,8e-05,4,3,6
12.705,2730101.396,0.00061,0.00015,0.00069,4,3,6
12.729,2730101.415,0.0,-0.00046,0.00069,4,3,6
12.744,2730101.434,0.0,-0.00046,8e-05,4,3,6
12.766,2730101.453,-0.00061,-0.00046,8e-05,4,3,6
12.786,2730101.472,-0.00061,0.00076,0.00015,4,3,6
12.803,2730101.491,0.0,-0.00046,0.00015,4,3,6
12.82,2730101.51,-0.00061,0.00015,-0.00107,4,3,6
12.841,2730101.529,0.0,-0.00046,-0.00046,4,3,6
12.857,2730101.548,-0.00061,0.00015,8e-05,4,3,6
12.877,2730101.567,0.00061,0.00015,8e-05,4,3,6
12.896,2730101.586,-0.00061,0.00015,8e-05,4,3,6
12.916,2730101.605,0.00061,8e-05,8e-05,4,3,6
12.932,2730101.624,-0.00061,-0.00053,8e-05,4,3,6
12.953,2730101.643,0.0,8e-05,0.00069,4,3,6
12.972,2730101.662,-0.00122,0.00069,8e-05,4,3,6
12.99,2730101.682,0.00061,-0.00053,-0.00053,4,3,6
13.008,2730101.701,0.0,8e-05,8e-05,4,3,6
13.031,2730101.72,0.0,-0.00053,8e-05,4,3,6
13.051,2730101.739,8e-05,8e-05,8e-05,4,3,6
13.067,2730101.758,-0.00053,0.00069,8e-05,4,3,6
13.088,2730101.777,8e-05,8e-05,-0.00053,4,3,6
13.104,2730101.796,0.00069,-0.00053,8e-05,4,3,6
13.123,2730101.815,0.00069,8e-05,8e-05,4,3,6
13.152,2730101.834,8e-05,-0.00053,8e-05,4,3,6
13.179,2730101.853,0.00069,-0.00053,8e-05,4,3,6
13.18,2730101.872,-0.00053,-0.00053,-0.00053,4,3,6
13.198,2730101.891,8e-05,-0.00053,-0.00053,4,3,6
13.219,2730101.91,-0.00053,8e-05,-0.00053,4,3,6
13.238,2730101.929,0.00069,8e-05,8e-05,4,3,6
13.258,2730101.948,-0.00053,0.00015,8e-05,4,3,6
13.276,2730101.967,0.00069,0.00015,-0.00053,4,3,6
13.295,2730101.986,8e-05,0.00015,8e-05,4,3,6
13.313,2730102.005,8e-05,0.00015,8e-05,4,3,6
13.331,2730102.024,8e-05,-0.00046,8e-05,4,3,6
13.352,2730102.043,8e-05,0.00015,-0.00053,4,3,6
13.371,2730102.062,0.00069,0.00015,8e-05,4,3,6
13.389,2730102.081,-0.00053,0.00015,8e-05,4,3,6
13.408,2730102.1,0.00069,0.00076,8e-05,4,3,6
13.431,2730102.119,-0.00053,0.00015,8e-05,4,3,6
13.451,2730102.138,0.00069,0.00015,8e-05,4,3,6
13.471,2730102.157,-0.00053,0.00015,-0.00053,4,3,6
13.484,2730102.176,8e-05,0.00015,0.00015,4,3,6
13.505,2730102.195,-0.00053,-0.00046,0.00076,4,3,6
13.523,2730102.214,0.00069,0.00015,0.00076,4,3,6
13.543,2730102.233,-0.00053,-0.00046,-0.00046,4,3,6
13.565,2730102.252,0.00069,0.00015,0.00015,4,3,6
13.584,2730102.271,8e-05,0.00015,0.00015,4,3,6
13.598,2730102.29,-0.00061,-0.00046,0.00015,4,3,6
13.617,2730102.309,0.0,-0.00046,0.00015,4,3,6
13.638,2730102.328,0.0,0.00015,0.00015,4,3,6
13.659,2730102.347,0.00061,0.00015,0.00015,4,3,6
13.676,2730102.366,-0.00061,0.00015,0.00015,4,3,6
13.695,2730102.385,0.00061,-0.00046,0.00015,4,3,6
13.713,2730102.404,-0.00061,-0.00046,0.00015,4,3,6
13.732,2730102.423,-0.00061,0.00076,0.00015,4,3,6
13.752,2730102.442,-0.00122,-0.00046,0.00015,4,3,6
13.77,2730102.461,0.00061,0.00015,0.00015,4,3,6
13.79,2730102.48,-0.00061,-0.00046,-0.00046,4,3,6
13.81,2730102.499,0.0,-0.00046,0.00015,4,3,6
13.828,2730102.518,0.0,-0.00046,0.00015,4,3,6
13.85,2730102.537,0.0,0.00015,0.00076,4,3,6
13.867,2730102.556,0.0,0.00015,0.00069,4,3,6
13.883,2730102.576,0.0,0.00015,0.00069,4,3,6
13.904,2730102.595,-0.00061,0.00015,-0.00053,4,3,6
13.924,2730102.614,-0.00061,0.00015,-0.00053,4,3,6
13.942,2730102.633,0.00061,0.00015,-0.00115,4,3,6
13.961,2730102.652,-0.00061,0.00015,-0.00053,4,3,6
13.984,2730102.671,8e-05,0.00015,8e-05,4,3,6
14.003,2730102.69,8e-05,-0.00107,0.00069,4,3,6
14.017,2730102.709,0.00069,0.00015,8e-05,4,3,6
14.037,2730102.728,8e-05,0.00015,-0.00053,4,3,6
14.055,2730102.747,0.00069,0.00015,-0.00053,4,3,6
14.075,2730102.766,8e-05,-0.00046,8e-05,4,3,6
14.094,2730102.785,0.00069,0.00015,8e-05,4,3,6
14.112,2730102.804,8e-05,0.00015,-0.00053,4,3,6
14.131,2730102.823,8e-05,0.00015,-0.00053,4,3,6
14.151,2730102.842,0.00069,0.00084,-0.00053,4,3,6
14.17,2730102.861,8e-05,0.00023,8e-05,4,3,6
14.188,2730102.88,8e-05,0.00023,8e-05,4,3,6
14.207,2730102.899,-0.00115,0.00023,8e-05,4,3,6
14.229,2730102.918,8e-05,0.00023,0.00069,4,3,6
14.248,2730102.937,-0.00053,0.00023,0.00069,4,3,6
14.268,2730102.956,8e-05,0.00023,8e-05,4,3,6
14.284,2730102.975,8e-05,0.00023,8e-05,4,3,6
14.303,2730102.994,8e-05,0.00023,-0.00053,4,3,6
14.325,2730103.013,-0.00053,0.00015,0.00069,4,3,6
14.345,2730103.032,8e-05,0.00015,-0.00053,4,3,6
14.361,2730103.051,8e-05,-0.00046,-0.00053,4,3,6
14.384,2730103.07,8e-05,0.00015,8e-05,4,3,6
14.397,2730103.089,8e-05,0.00015,0.00069,4,3,6
14.416,2730103.108,8e-05,-0.00046,8e-05,4,3,6
14.436,2730103.127,0.00069,0.00015,8e-05,4,3,6
14.455,2730103.146,-0.00053,-0.00046,-0.00046,4,3,6
14.474,2730103.165,0.00069,-0.00046,-0.00046,4,3,6
14.496,2730103.184,-0.00053,-0.00046,0.00015,4,3,6
14.511,2730103.203,8e-05,0.00015,0.00076,4,3,6
14.53,2730103.222,-0.00053,0.00015,0.00015,4,3,6
14.549,2730103.241,8e-05,0.00015,-0.00046,4,3,6
14.569,2730103.26,-0.00061,8e-05,0.00015,4,3,6
14.586,2730103.279,0.0,8e-05,0.00015,4,3,6
14.608,2730103.298,0.0,8e-05,0.00015,4,3,6
14.628,2730103.317,0.0,8e-05,0.00015,4,3,6
14.651,2730103.336,0.00061,8e-05,0.00015,4,3,6
14.665,2730103.355,-0.00061,0.00069,0.00015,4,3,6
14.682,2730103.374,8e-05,8e-05,0.00015,4,3,6
14.701,2730103.393,-0.00053,8e-05,0.00015,4,3,6
14.722,2730103.412,0.00069,8e-05,0.00076,4,3,6
14.743,2730103.431,-0.00053,8e-05,8e-05,4,3,6
14.762,2730103.45,0.00069,-0.00053,-0.00053,4,3,6
14.779,2730103.469,8e-05,-0.00053,-0.00053,4,3,6
14.798,2730103.489,0.00069,8e-05,8e-05,4,3,6
14.815,2730103.508,-0.00053,8e-05,8e-05,4,3,6
14.835,2730103.527,8e-05,0.00069,-0.00053,4,3,6
14.858,2730103.546,-0.00053,8e-05,8e-05,4,3,6
14.874,2730103.565,8e-05,-0.00053,8e-05,4,3,6
14.897,2730103.584,8e-05,8e-05,8e-05,4,3,6
14.911,2730103.603,8e-05,8e-05,8e-05,4,3,6
14.931,2730103.622,8e-05,8e-05,-0.00053,4,3,6
14.948,2730103.641,8e-05,-0.00053,8e-05,4,3,6
14.971,2730103.66,8e-05,8e-05,8e-05,4,3,6
14.988,2730103.679,8e-05,-0.00053,-0.00053,4,3,6
15.007,2730103.698,8e-05,8e-05,8e-05,4,3,6
15.028,2730103.717,-0.00053,-0.00053,8e-05,4,3,6
15.044,2730103.736,0.00069,8e-05,-0.00053,4,3,6
15.064,2730103.755,-0.00115,8e-05,8e-05,4,3,6
15.088,2730103.774,0.00069,8e-05,8e-05,4,3,6
15.102,2730103.793,8e-05,8e-05,8e-05,4,3,6
15.12,2730103.812,8e-05,8e-05,-0.00053,4,3,6
15.148,2730103.831,8e-05,8e-05,-0.00053,4,3,6
15.172,2730103.85,8e-05,8e-05,8e-05,4,3,6
15.178,2730103.869,8e-05,-0.00053,-0.00053,4,3,6
15.195,2730103.888,8e-05,8e-05,8e-05,4,3,6
15.214,2730103.907,8e-05,-0.00053,8e-05,4,3,6
15.234,2730103.926,-0.00053,8e-05,-0.00053,4,3,6
15.253,2730103.945,0.00069,8e-05,-0.00053,4,3,6
15.272,2730103.964,-0.00053,8e-05,8e-05,4,3,6
15.291,2730103.983,8e-05,8e-05,0.00015,4,3,6
15.31,2730104.002,-0.00053,8e-05,0.00015,4,3,6
15.329,2730104.021,0.00069,0.00069,0.00015,4,3,6
15.348,2730104.04,-0.00053,8e-05,0.00015,4,3,6
15.367,2730104.059,0.00069,8e-05,0.00076,4,3,6
15.387,2730104.078,8e-05,8e-05,0.00015,4,3,6
15.406,2730104.097,8e-05,0.00015,0.00015,4,3,6
15.427,2730104.116,8e-05,0.00015,0.00076,4,3,6
15.444,2730104.135,8e-05,0.00015,0.00015,4,3,6
15.462,2730104.154,8e-05,-0.00046,0.00015,4,3,6
15.481,2730104.173,8e-05,-0.00046,0.00076,4,3,6
15.502,2730104.192,8e-05,0.00015,0.00015,4,3,6
15.519,2730104.211,-0.00053,8e-05,0.00015,4,3,6
15.541,2730104.23,8e-05,0.00069,0.00015,4,3,6
15.559,2730104.249,-0.00053,8e-05,0.00015,4,3,6
15.577,2730104.268,0.00069,0.00069,-0.00046,4,3,6
15.599,2730104.287,-0.00053,-0.00053,-0.00046,4,3,6
15.614,2730104.306,0.00069,8e-05,0.00015,4,3,6
15.633,2730104.325,8e-05,8e-05,0.00076,4,3,6
15.655,2730104.344,0.00069,8e-05,-0.00046,4,3,6
15.672,2730104.363,8e-05,-0.00053,-0.00046,4,3,6
15.691,2730104.382,8e-05,8e-05,-0.00107,4,3,6
15.709,2730104.402,-0.00053,8e-05,0.00015,4,3,6
15.728,2730104.421,8e-05,-0.00053,0.00076,4,3,6
15.749,2730104.44,8e-05,8e-05,0.00069,4,3,6
15.767,2730104.459,8e-05,-0.00053,8e-05,4,3,6
15.786,2730104.478,0.00069,8e-05,-0.00053,4,3,6
15.805,2730104.497,8e-05,-0.00053,8e-05,4,3,6
15.827,2730104.516,0.00069,8e-05,0.00069,4,3,6
15.843,2730104.535,-0.00053,8e-05,8e-05,4,3,6
15.862,2730104.554,0.00069,8e-05,8e-05,4,3,6
15.881,2730104.573,-0.00053,8e-05,8e-05,4,3,6
15.901,2730104.592,0.00061,8e-05,8e-05,4,3,6
15.919,2730104.611,0.0,8e-05,8e-05,4,3,6
15.939,2730104.63,0.00061,-0.00053,8e-05,4,3,6
15.957,2730104.649,0.0,8e-05,8e-05,4,3,6
15.977,2730104.668,0.0,8e-05,0.00069,4,3,6
15.995,2730104.687,0.00061,-0.00053,8e-05,4,3,6
16.014,2730104.706,0.0,8e-05,8e-05,4,3,6
16.033,2730104.725,0.0,8e-05,0.0,4,3,6
16.054,2730104.744,-0.00061,-0.00053,-0.00061,4,3,6
16.072,2730104.763,-0.0,-0.00053,0.0,4,3,6
16.09,2730104.782,-0.00061,8e-05,0.00061,4,3,6
16.11,2730104.801,0.00061,8e-05,0.0,4,3,6
16.127,2730104.82,-0.0,8e-05,0.0,4,3,6
16.148,2730104.839,0.00061,8e-05,-0.00061,4,3,6
16.167,2730104.858,-0.0,-0.00053,-0.00061,4,3,6
16.185,2730104.877,-0.00061,0.00015,0.0,4,3,6
16.204,2730104.896,-0.00069,-0.00046,0.0,4,3,6
16.226,2730104.915,-8e-05,-0.00046,0.00061,4,3,6
16.243,2730104.934,-0.00069,0.00015,0.0,4,3,6
16.264,2730104.953,-8e-05,0.00015,-0.00061,4,3,6
16.283,2730104.972,0.00053,0.00015,-0.00061,4,3,6
16.3,2730104.991,-8e-05,0.00015,0.0,4,3,6
16.32,2730105.01,0.00053,0.00015,0.0,4,3,6
16.337,2730105.029,-0.00069,0.00015,0.0,4,3,6
16.356,2730105.048,-8e-05,0.00015,-0.00061,4,3,6
16.375,2730105.067,-0.0013,-0.00046,-0.00061,4,3,6
16.395,2730105.086,-8e-05,-0.00046,0.0,4,3,6
16.413,2730105.105,-8e-05,-0.00046,0.0,4,3,6
16.432,2730105.124,-8e-05,0.00015,-0.00061,4,3,6
16.453,2730105.143,-0.00069,0.00015,0.0,4,3,6
16.471,2730105.162,0.00053,0.00076,0.0,4,3,6
16.49,2730105.181,-8e-05,0.00015,0.0,4,3,6
16.508,2730105.2,-0.0,0.00015,0.0,4,3,6
16.528,2730105.219,-0.00061,0.00076,8e-05,4,3,6
16.547,2730105.238,-0.00061,0.00023,8e-05,4,3,6
16.569,2730105.257,-0.0,-0.00038,-0.00053,4,3,6
16.585,2730105.276,-0.00122,0.00023,8e-05,4,3,6
16.604,2730105.296,0.0,0.00023,8e-05,4,3,6
16.627,2730105.315,0.0,0.00076,-0.00053,4,3,6
16.645,2730105.334,0.00061,0.00015,8e-05,4,3,6
16.661,2730105.353,0.0,-0.00046,8e-05,4,3,6
16.679,2730105.372,0.00069,0.00015,8e-05,4,3,6
16.699,2730105.391,-0.00053,0.00015,0.00069,4,3,6
16.718,2730105.41,0.00069,0.00015,8e-05,4,3,6
16.739,2730105.429,8e-05,0.00015,8e-05,4,3,6
16.758,2730105.448,8e-05,0.00015,0.00015,4,3,6
16.776,2730105.467,8e-05,0.00015,0.00015,4,3,6
16.796,2730105.486,8e-05,-0.00046,0.00015,4,3,6
16.813,2730105.505,0.00069,0.00015,-0.00046,4,3,6
16.831,2730105.524,-0.00053,0.00015,-0.00046,4,3,6
16.851,2730105.543,8e-05,0.00015,-0.00046,4,3,6
16.87,2730105.562,8e-05,0.00015,0.00015,4,3,6
16.889,2730105.581,0.00069,-0.00053,0.00015,4,3,6
16.908,2730105.6,-0.00053,8e-05,0.00015,4,3,6
16.928,2730105.619,0.00069,-0.00053,0.00015,4,3,6
16.948,2730105.638,-0.00053,0.00069,-0.00046,4,3,6
16.965,2730105.657,0.00069,-0.00053,-0.00046,4,3,6
16.985,2730105.676,-0.00053,8e-05,-0.00046,4,3,6
17.004,2730105.695,8e-05,-0.00053,0.00015,4,3,6
17.022,2730105.714,-0.00053,8e-05,-0.00046,4,3,6
17.042,2730105.733,-0.00053,8e-05,0.00015,4,3,6
17.06,2730105.752,8e-05,8e-05,0.00015,4,3,6
17.08,2730105.771,8e-05,-0.00053,0.00015,4,3,6
17.105,2730105.79,8e-05,8e-05,-0.00046,4,3,6
17.118,2730105.809,8e-05,-0.00053,-0.00046,4,3,6
17.135,2730105.828,0.00069,8e-05,-0.00046,4,3,6
17.168,2730105.847,8e-05,8e-05,0.00015,4,3,6
17.176,2730105.866,0.00069,-0.00053,0.00015,4,3,6
17.193,2730105.885,8e-05,8e-05,0.00015,4,3,6
17.212,2730105.904,0.00069,8e-05,-0.00046,4,3,6
17.231,2730105.923,8e-05,-0.00053,0.00015,4,3,6
17.25,2730105.942,-0.00053,8e-05,-0.00046,4,3,6
17.27,2730105.961,0.0,-0.00053,0.00015,4,3,6
17.289,2730105.98,0.00061,8e-05,0.00015,4,3,6
17.309,2730105.999,0.00061,8e-05,0.00015,4,3,6
17.327,2730106.018,0.0,8e-05,0.00015,4,3,6
17.346,2730106.037,0.00061,0.00015,-0.00038,4,3,6
17.365,2730106.056,-0.00061,-0.00046,0.00023,4,3,6
17.383,2730106.075,0.0,0.00015,0.00023,4,3,6
17.402,2730106.094,-0.00061,0.00015,0.00023,4,3,6
17.423,2730106.113,0.00061,0.00076,0.00023,4,3,6
17.441,2730106.132,-0.0,-0.00046,0.00023,4,3,6
17.46,2730106.151,0.00061,0.00076,0.00023,4,3,6
17.479,2730106.17,-0.00061,-0.00046,0.00023,4,3,6
17.498,2730106.189,-0.00061,0.00076,0.00023,4,3,6
17.517,2730106.209,-0.00061,0.00015,-0.00038,4,3,6
17.536,2730106.228,-0.00122,0.00015,0.00023,4,3,6
17.555,2730106.247,-0.00061,-0.00046,0.00023,4,3,6
17.574,2730106.266,-0.0,-0.00046,-0.00038,4,3,6
17.592,2730106.285,0.00061,-0.00046,0.00023,4,3,6
17.612,2730106.304,-0.00061,0.00015,0.00023,4,3,6
17.632,2730106.323,0.00061,-0.00046,0.00023,4,3,6
17.649,2730106.342,-0.00061,-0.00046,0.00023,4,3,6
17.669,2730106.361,0.00061,0.00015,0.00023,4,3,6
17.688,2730106.38,-0.00061,-0.00046,0.00023,4,3,6
17.706,2730106.399,0.00061,0.00015,0.00023,4,3,6
17.729,2730106.418,-0.0,-0.00046,-0.00038,4,3,6
17.745,2730106.437,0.00061,0.00015,0.00023,4,3,6
17.766,2730106.456,-0.0,0.00015,0.00015,4,3,6
17.785,2730106.475,-0.0,0.00015,0.00015,4,3,6
17.801,2730106.494,-0.0,-0.00046,0.00076,4,3,6
17.821,2730106.513,0.0,0.00015,0.00076,4,3,6
17.84,2730106.532,0.0,0.00015,0.00076,4,3,6
17.859,2730106.551,-0.00061,0.00015,0.00015,4,3,6
17.878,2730106.57,0.00061,0.00015,0.00015,4,3,6
17.896,2730106.589,-0.00061,-0.00046,0.00015,4,3,6
17.915,2730106.608,0.00061,0.00015,0.00015,4,3,6
17.935,2730106.627,-0.00061,0.00015,0.00015,4,3,6
17.956,2730106.646,0.00061,0.00076,8e-05,4,3,6
17.974,2730106.665,8e-05,-0.00046,8e-05,4,3,6
17.995,2730106.684,0.00069,0.00015,8e-05,4,3,6
18.011,2730106.703,-0.00053,0.00015,8e-05,4,3,6
18.029,2730106.722,8e-05,0.00015,-0.00053,4,3,6
18.049,2730106.741,8e-05,0.00015,0.00069,4,3,6
18.068,2730106.76,8e-05,0.00015,0.00069,4,3,6
18.091,2730106.779,0.00069,-0.00046,8e-05,4,3,6
18.107,2730106.798,-0.00053,0.00015,8e-05,4,3,6
18.125,2730106.817,8e-05,0.00015,-0.00061,4,3,6
18.145,2730106.836,8e-05,0.00015,-0.00061,4,3,6
18.162,2730106.855,8e-05,0.00076,0.0,4,3,6
18.182,2730106.874,-0.00053,0.00015,0.0,4,3,6
18.205,2730106.893,0.00061,-0.00046,0.0,4,3,6
18.221,2730106.912,-0.00061,-0.00107,0.00061,4,3,6
18.239,2730106.931,0.0,0.00015,-0.00061,4,3,6
18.258,2730106.95,0.0,0.00015,-0.0,4,3,6
18.279,2730106.969,0.0,0.00015,-0.0,4,3,6
18.301,2730106.988,-0.00061,-0.00046,-0.0,4,3,6
18.315,2730107.007,-0.00061,0.00015,-0.00061,4,3,6
18.336,2730107.026,0.0,0.00015,-0.00061,4,3,6
18.354,2730107.045,0.0,0.00015,-0.0,4,3,6
18.373,2730107.064,0.00061,0.00076,-0.0,4,3,6
18.394,2730107.083,-0.00122,0.00015,-0.0,4,3,6
18.411,2730107.103,0.00061,0.00015,-0.0,4,3,6
18.429,2730107.122,0.0,0.00015,-0.00061,4,3,6
18.451,2730107.141,0.0,0.00015,-0.00061,4,3,6
18.468,2730107.16,-0.00061,0.00076,-0.00061,4,3,6
18.487,2730107.179,0.0,0.00076,-0.00061,4,3,6
18.51,2730107.198,0.0,-0.00046,-0.00061,4,3,6
18.527,2730107.217,0.00061,0.00015,-0.0,4,3,6
18.549,2730107.236,0.0,-0.00053,0.0,4,3,6
18.569,2730107.255,0.00061,8e-05,0.0,4,3,6
18.586,2730107.274,0.0,8e-05,0.0,4,3,6
18.602,2730107.293,-0.00053,8e-05,0.0,4,3,6
18.621,2730107.312,0.00069,0.00069,8e-05,4,3,6
18.64,2730107.331,-0.00053,-0.00053,-0.00053,4,3,6
18.663,2730107.35,0.00069,8e-05,-0.00053,4,3,6
18.678,2730107.369,-0.00053,8e-05,8e-05,4,3,6
18.697,2730107.388,0.00069,-0.00053,0.00069,4,3,6
18.715,2730107.407,8e-05,8e-05,8e-05,4,3,6
18.738,2730107.426,0.00069,8e-05,-0.00046,4,3,6
18.755,2730107.445,8e-05,-0.00053,-0.00046,4,3,6
18.772,2730107.464,0.0013,8e-05,0.00015,4,3,6
18.795,2730107.483,8e-05,8e-05,0.00015,4,3,6
18.809,2730107.502,0.00069,8e-05,0.00015,4,3,6
18.829,2730107.521,8e-05,0.00069,-0.00046,4,3,6
18.848,2730107.54,8e-05,8e-05,-0.00046,4,3,6
18.868,2730107.559,0.00069,-0.00053,0.00015,4,3,6
18.886,2730107.578,8e-05,-0.00053,-0.00046,4,3,6
18.907,2730107.597,0.0,8e-05,-0.00038,4,3,6
18.925,2730107.616,-0.00061,8e-05,0.00023,4,3,6
18.945,2730107.635,0.0,8e-05,0.00023,4,3,6
18.962,2730107.654,-0.00061,0.00069,0.00023,4,3,6
18.984,2730107.673,-0.0,8e-05,0.00023,4,3,6
19.004,2730107.692,-0.00122,0.00069,0.00023,4,3,6
19.022,2730107.711,0.00061,8e-05,0.00023,4,3,6
19.04,2730107.73,-8e-05,8e-05,0.00023,4,3,6
19.059,2730107.749,-8e-05,8e-05,0.00023,4,3,6
19.077,2730107.768,-0.0013,8e-05,0.00023,4,3,6
19.097,2730107.787,-8e-05,8e-05,-0.00038,4,3,6
19.115,2730107.806,-8e-05,0.00069,-0.00038,4,3,6
19.134,2730107.825,-0.00069,-0.00053,0.00023,4,3,6
19.177,2730107.844,-8e-05,-0.00053,0.00023,4,3,6
19.179,2730107.863,-8e-05,-0.00053,0.00023,4,3,6
19.191,2730107.882,0.00053,0.00069,-0.00038,4,3,6
19.21,2730107.901,-8e-05,-0.00115,0.00023,4,3,6
19.227,2730107.92,0.00053,8e-05,0.00084,4,3,6
19.247,2730107.939,-8e-05,-0.00053,0.00023,4,3,6
19.266,2730107.958,0.00053,8e-05,0.00023,4,3,6
19.287,2730107.977,-8e-05,8e-05,0.00023,4,3,6
19.307,2730107.996,-8e-05,8e-05,-0.00038,4,3,6
19.325,2730108.016,-8e-05,8e-05,-0.00038,4,3,6
19.349,2730108.035,-8e-05,8e-05,0.00023,4,3,6
19.363,2730108.054,-8e-05,-0.00053,0.00023,4,3,6
19.381,2730108.073,-0.0,8e-05,0.00015,4,3,6
19.4,2730108.092,-0.00061,8e-05,-0.00046,4,3,6
19.419,2730108.111,-0.00061,8e-05,-0.00046,4,3,6
19.439,2730108.13,-0.0,8e-05,-0.00046,4,3,6
19.461,2730108.149,-0.00061,-0.00053,0.00015,4,3,6
19.477,2730108.168,0.00061,8e-05,0.00076,4,3,6
19.497,2730108.187,0.0,8e-05,0.00076,4,3,6
19.519,2730108.206,0.00061,8e-05,0.00015,4,3,6
19.533,2730108.225,-0.00061,-0.00053,-0.00046,4,3,6
19.554,2730108.244,0.0,8e-05,-0.00046,4,3,6
19.576,2730108.263,-0.00061,-0.00053,-0.00046,4,3,6
19.59,2730108.282,0.0,0.00069,-0.00046,4,3,6
19.61,2730108.301,8e-05,-0.00053,-0.00046,4,3,6
19.629,2730108.32,8e-05,8e-05,0.00015,4,3,6
19.649,2730108.339,8e-05,8e-05,0.00015,4,3,6
19.67,2730108.358,8e-05,-0.00053,-0.00046,4,3,6
19.684,2730108.377,0.00069,8e-05,0.00015,4,3,6
19.706,2730108.396,8e-05,0.00015,0.00076,4,3,6
19.725,2730108.415,8e-05,-0.00046,-0.00046,4,3,6
19.744,2730108.434,8e-05,0.00076,0.00015,4,3,6
19.762,2730108.453,0.00069,0.00015,0.00076,4,3,6
19.781,2730108.472,-0.00053,0.00015,0.00015,4,3,6
19.799,2730108.491,8e-05,0.00015,0.00015,4,3,6
19.819,2730108.51,-0.00053,0.00015,0.00015,4,3,6
19.838,2730108.529,0.00061,0.00015,0.00015,4,3,6
19.861,2730108.548,-0.00061,-0.00046,0.00015,4,3,6
19.879,2730108.567,0.0,0.00015,-0.00046,4,3,6
19.899,2730108.586,0.0,0.00015,-0.00046,4,3,6
19.914,2730108.605,8e-05,-0.00046,0.00076,4,3,6
19.934,2730108.624,8e-05,0.00076,-0.00046,4,3,6
19.953,2730108.643,-0.00053,0.00076,-0.00046,4,3,6
19.972,2730108.662,0.00069,0.00015,0.00015,4,3,6
19.989,2730108.681,-0.00053,0.00015,0.00015,4,3,6
20.01,2730108.7,0.00069,0.00015,0.00015,4,3,6
20.029,2730108.719,8e-05,-0.00046,0.00015,4,3,6
20.053,2730108.738,0.00069,0.00015,0.00015,4,3,6
20.069,2730108.757,-0.00053,0.00015,0.00015,4,3,6
20.09,2730108.776,0.00069,0.00015,0.00015,4,3,6
20.11,2730108.795,0.0,0.00015,0.00015,4,3,6
20.122,2730108.814,0.00061,0.00015,0.00015,4,3,6
20.142,2730108.833,0.0,0.00076,0.00015,4,3,6
20.161,2730108.852,0.0,8e-05,0.00015,4,3,6
20.181,2730108.871,0.0,-0.00053,0.00015,4,3,6
20.198,2730108.89,0.0,8e-05,-0.00046,4,3,6
20.219,2730108.91,0.0,-0.00053,-0.00046,4,3,6
20.239,2730108.929,0.0,-0.00053,0.00015,4,3,6
20.259,2730108.948,0.00061,8e-05,0.00015,4,3,6
20.276,2730108.967,-0.00061,-0.00053,0.00015,4,3,6
20.294,2730108.986,0.00061,8e-05,0.00015,4,3,6
20.316,2730109.005,-0.00061,-0.00053,0.00015,4,3,6
20.335,2730109.024,-0.0,8e-05,-0.00046,4,3,6
20.352,2730109.043,-0.00122,-0.00053,8e-05,4,3,6
20.371,2730109.062,-0.0,-0.00053,-0.00053,4,3,6
20.389,2730109.081,-0.00061,8e-05,8e-05,4,3,6
20.408,2730109.1,-0.0,8e-05,8e-05,4,3,6
20.431,2730109.119,-0.0,8e-05,0.00069,4,3,6
20.447,2730109.138,-0.0,8e-05,8e-05,4,3,6
20.47,2730109.157,-0.0,0.00069,0.00069,4,3,6
20.483,2730109.176,-0.00122,0.00069,8e-05,4,3,6
20.504,2730109.195,-0.0,8e-05,0.00069,4,3,6
20.523,2730109.214,-0.00061,8e-05,8e-05,4,3,6
20.546,2730109.233,0.00061,8e-05,-0.00053,4,3,6
20.564,2730109.252,-0.00061,-0.00053,8e-05,4,3,6
20.58,2730109.271,-0.0,8e-05,8e-05,4,3,6
20.601,2730109.29,-0.00061,8e-05,8e-05,4,3,6
20.618,2730109.309,0.0,8e-05,8e-05,4,3,6
20.637,2730109.328,-0.00061,8e-05,8e-05,4,3,6
20.66,2730109.347,0.00061,0.00069,-0.00053,4,3,6
20.676,2730109.366,0.0,-0.00115,8e-05,4,3,6
20.695,2730109.385,0.0,-0.00053,8e-05,4,3,6
20.714,2730109.404,-0.00053,0.00069,8e-05,4,3,6
20.732,2730109.423,-0.00053,-0.00046,-0.00053,4,3,6
20.751,2730109.442,8e-05,0.00015,-0.00053,4,3,6
20.771,2730109.461,-0.00053,-0.00046,-0.00053,4,3,6
20.788,2730109.48,8e-05,-0.00046,8e-05,4,3,6
20.807,2730109.499,-0.00053,0.00076,8e-05,4,3,6
20.829,2730109.518,0.00069,0.00015,0.00069,4,3,6
20.849,2730109.537,0.00015,0.00015,8e-05,4,3,6
20.867,2730109.556,0.00137,0.00015,8e-05,4,3,6
20.885,2730109.575,0.00015,0.00015,8e-05,4,3,6
20.903,2730109.594,0.00076,0.00076,8e-05,4,3,6
20.924,2730109.613,-0.00046,0.00015,8e-05,4,3,6
20.941,2730109.632,-0.00046,0.00015,8e-05,4,3,6
20.96,2730109.651,0.00015,8e-05,0.00069,4,3,6
20.981,2730109.67,0.00076,-0.00053,0.00069,4,3,6
20.998,2730109.689,0.00015,8e-05,8e-05,4,3,6
21.016,2730109.708,-0.00046,-0.00053,8e-05,4,3,6
21.036,2730109.727,0.00076,-0.00053,0.00069,4,3,6
21.056,2730109.746,0.00015,-0.00053,8e-05,4,3,6
21.075,2730109.765,0.00076,8e-05,8e-05,4,3,6
21.094,2730109.784,-0.00046,-0.00053,8e-05,4,3,6
21.112,2730109.803,0.00076,-0.00053,-0.00053,4,3,6
21.13,2730109.823,-0.00046,8e-05,8e-05,4,3,6
21.171,2730109.842,0.00076,0.00069,8e-05,4,3,6
21.172,2730109.861,-0.00046,8e-05,0.00069,4,3,6
21.189,2730109.88,0.00015,8e-05,0.0,4,3,6
21.207,2730109.899,-0.00046,8e-05,0.0,4,3,6
21.227,2730109.918,0.00069,-0.00053,0.0,4,3,6
21.246,2730109.937,0.00069,0.00069,0.0,4,3,6
21.265,2730109.956,8e-05,-0.00053,-0.00061,4,3,6
21.282,2730109.975,0.00069,0.00015,-0.00061,4,3,6
21.304,2730109.994,8e-05,-0.00046,0.0,4,3,6
21.322,2730110.013,8e-05,-0.00107,0.0,4,3,6
21.341,2730110.032,-0.00053,0.00015,0.0,4,3,6
21.36,2730110.051,8e-05,0.00015,-0.00061,4,3,6
21.379,2730110.07,-0.00061,-0.00046,-0.0,4,3,6
21.397,2730110.089,0.0,0.00015,-0.0,4,3,6
21.416,2730110.108,-0.00061,0.00015,-0.0,4,3,6
21.435,2730110.127,0.00061,0.00076,-0.0,4,3,6
21.455,2730110.146,-0.0,0.00015,-0.00061,4,3,6
21.475,2730110.165,-0.0,-0.00046,0.00061,4,3,6
21.493,2730110.184,-0.00061,0.00015,0.00061,4,3,6
21.512,2730110.203,-0.00061,0.00015,-0.0,4,3,6
21.53,2730110.222,0.00061,-0.00046,-0.0,4,3,6
21.549,2730110.241,-0.00061,0.00015,-0.0,4,3,6
21.57,2730110.26,0.00061,0.00015,-0.0,4,3,6
21.587,2730110.279,-0.00061,0.00015,-0.00061,4,3,6
21.607,2730110.298,0.00061,-0.00046,-0.00061,4,3,6
21.631,2730110.317,-0.00061,0.00015,-0.0,4,3,6
21.646,2730110.336,0.00061,-0.00046,-0.0,4,3,6
21.668,2730110.355,-0.0,0.00015,-0.00061,4,3,6
21.682,2730110.374,-0.0,0.00015,0.0,4,3,6
21.702,2730110.393,-0.00061,0.00015,0.0,4,3,6
21.721,2730110.412,0.00061,0.00015,-0.00061,4,3,6
21.743,2730110.431,-0.0,0.00015,-0.00061,4,3,6
21.764,2730110.45,0.0,-0.00046,0.0,4,3,6
21.781,2730110.469,0.00061,-0.00046,0.0,4,3,6
21.797,2730110.488,0.00061,0.00015,-0.00053,4,3,6
21.819,2730110.507,0.00061,0.00015,-0.00053,4,3,6
21.836,2730110.526,0.0,-0.00046,8e-05,4,3,6
21.857,2730110.545,0.0,0.00015,8e-05,4,3,6
21.874,2730110.564,-0.00061,0.00015,8e-05,4,3,6
21.892,2730110.583,0.00061,0.00015,8e-05,4,3,6
21.911,2730110.602,-0.00061,0.00015,8e-05,4,3,6
21.929,2730110.621,0.00061,-0.00046,-0.00115,4,3,6
21.948,2730110.64,0.0,-0.00046,-0.00053,4,3,6
21.969,2730110.659,0.0,-0.00046,8e-05,4,3,6
21.989,2730110.678,-0.00122,-0.00046,-0.00053,4,3,6
22.008,2730110.697,0.0,0.00015,-0.00046,4,3,6
22.029,2730110.717,0.0,0.00076,0.00015,4,3,6
22.045,2730110.736,-0.00061,0.00015,0.00015,4,3,6
22.065,2730110.755,-0.00061,0.00015,-0.00046,4,3,6
22.09,2730110.774,-0.00061,0.00015,-0.00046,4,3,6
22.108,2730110.793,-0.0,0.00015,0.00015,4,3,6
22.12,2730110.812,-0.00061,-0.00046,0.00015,4,3,6
22.139,2730110.831,0.00061,-0.00046,0.00015,4,3,6
22.159,2730110.85,-0.00061,-0.00046,0.00023,4,3,6
22.177,2730110.869,-0.0,0.00076,0.00023,4,3,6
22.195,2730110.888,-0.00061,-0.00046,0.00023,4,3,6
22.218,2730110.907,0.00061,0.00015,0.00023,4,3,6
22.235,2730110.926,-0.0,0.00015,0.00023,4,3,6
22.258,2730110.945,-0.0,-0.00046,0.00084,4,3,6
22.273,2730110.964,0.0,0.00076,0.00023,4,3,6
22.293,2730110.983,0.0,0.00015,0.00023,4,3,6
22.311,2730111.002,0.00061,0.00023,0.00023,4,3,6
22.331,2730111.021,0.00061,-0.00099,-0.00038,4,3,6
22.347,2730111.04,0.00061,-0.0016,-0.00038,4,3,6
22.366,2730111.059,-0.00122,-0.00038,-0.00038,4,3,6
22.386,2730111.078,0.0,0.00023,-0.00038,4,3,6
22.407,2730111.097,-0.00053,-0.00099,0.00023,4,3,6
22.426,2730111.116,0.00069,-0.00038,0.00023,4,3,6
22.445,2730111.135,-0.00053,0.00023,0.00023,4,3,6
22.465,2730111.154,8e-05,0.00023,0.00023,4,3,6
22.484,2730111.173,8e-05,-0.00038,0.00084,4,3,6
22.503,2730111.192,0.00069,-0.00038,0.00084,4,3,6
22.521,2730111.211,-0.00053,0.00084,0.00023,4,3,6
22.54,2730111.23,-0.00053,0.00084,-0.00038,4,3,6
22.558,2730111.249,8e-05,0.00023,-0.00038,4,3,6
22.581,2730111.268,8e-05,0.00023,-0.00038,4,3,6
22.595,2730111.287,8e-05,0.00023,0.00023,4,3,6
22.614,2730111.306,8e-05,0.00023,0.00023,4,3,6
22.633,2730111.325,8e-05,0.00084,0.00015,4,3,6
22.654,2730111.344,-0.00053,0.00023,0.00015,4,3,6
22.673,2730111.363,0.0013,-0.00038,0.00015,4,3,6
22.691,2730111.382,8e-05,-0.00038,0.00015,4,3,6
22.711,2730111.401,0.00069,0.00023,0.00015,4,3,6
22.731,2730111.42,-0.00053,-0.00038,0.00015,4,3,6
22.752,2730111.439,8e-05,0.00023,0.00015,4,3,6
22.769,2730111.458,8e-05,-0.00038,0.00015,4,3,6
22.787,2730111.477,8e-05,0.00023,0.00076,4,3,6
22.806,2730111.496,8e-05,0.00023,0.00015,4,3,6
22.824,2730111.515,-0.00053,-0.00038,0.00015,4,3,6
22.845,2730111.534,8e-05,0.00084,-0.00046,4,3,6
22.865,2730111.553,-0.00053,0.00023,8e-05,4,3,6
22.882,2730111.572,8e-05,0.00023,-0.00053,4,3,6
22.9,2730111.591,-0.00053,0.00023,-0.00053,4,3,6
22.92,2730111.61,8e-05,-0.00038,-0.00053,4,3,6
22.942,2730111.63,8e-05,0.00023,8e-05,4,3,6
22.958,2730111.649,0.00069,0.00023,8e-05,4,3,6
22.977,2730111.668,8e-05,-0.00038,-0.00053,4,3,6
22.999,2730111.687,0.00069,-0.00038,8e-05,4,3,6
23.013,2730111.706,8e-05,-0.00038,8e-05,4,3,6
23.032,2730111.725,8e-05,0.00023,8e-05,4,3,6
23.053,2730111.744,-0.00053,0.00023,8e-05,4,3,6
23.075,2730111.763,8e-05,0.00023,8e-05,4,3,6
23.092,2730111.782,0.00069,0.00015,-0.00053,4,3,6
23.108,2730111.801,0.00069,0.00015,8e-05,4,3,6
23.128,2730111.82,0.00069,-0.00046,8e-05,4,3,6
23.149,2730111.839,8e-05,0.00015,8e-05,4,3,6
23.171,2730111.858,0.00061,-0.00046,-0.00053,4,3,6
23.185,2730111.877,0.0,0.00076,8e-05,4,3,6
23.205,2730111.896,0.0,-0.00046,0.00069,4,3,6
23.224,2730111.915,-0.00061,0.00015,8e-05,4,3,6
23.242,2730111.934,0.00061,0.00015,0.00069,4,3,6
23.26,2730111.953,-0.00061,-0.00107,8e-05,4,3,6
23.284,2730111.972,0.0,0.00076,8e-05,4,3,6
23.298,2730111.991,-0.00061,0.00015,8e-05,4,3,6
23.318,2730112.01,0.0,0.00015,8e-05,4,3,6
23.339,2730112.029,0.0,0.00076,0.00069,4,3,6
23.362,2730112.048,-0.0,-0.00046,8e-05,4,3,6
23.376,2730112.067,-0.0,0.00015,0.00015,4,3,6
23.395,2730112.086,-0.00061,0.00015,0.00015,4,3,6
23.413,2730112.105,-0.0,-0.00046,0.00015,4,3,6
23.432,2730112.124,-0.0,-0.00046,8e-05,4,3,6
23.452,2730112.143,0.00061,0.00015,8e-05,4,3,6
23.472,2730112.162,-0.0,-0.00046,8e-05,4,3,6
23.49,2730112.181,0.00061,0.00015,8e-05,4,3,6
23.511,2730112.2,-0.00122,-0.00046,-0.00053,4,3,6
23.527,2730112.219,-0.0,0.00015,8e-05,4,3,6
23.548,2730112.238,-0.00061,0.00015,8e-05,4,3,6
23.566,2730112.257,-0.0,0.00076,-0.00053,4,3,6
23.585,2730112.276,-0.0,0.00015,8e-05,4,3,6
23.605,2730112.295,0.00061,0.00015,8e-05,4,3,6
23.627,2730112.314,-0.00061,0.00015,8e-05,4,3,6
23.642,2730112.333,-0.00061,0.00015,8e-05,4,3,6
23.665,2730112.352,-0.0,0.00015,-0.00053,4,3,6
23.681,2730112.371,-0.0,0.00015,-0.00061,4,3,6
23.702,2730112.39,0.00061,0.00015,0.0,4,3,6
23.717,2730112.409,-0.00061,0.00015,-0.00061,4,3,6
23.737,2730112.428,-0.0,0.00076,0.0,4,3,6
23.756,2730112.447,-0.0,-0.00046,0.0,4,3,6
23.775,2730112.466,0.00122,0.00076,0.0,4,3,6
23.793,2730112.485,0.0,-0.00046,0.0,4,3,6
23.812,2730112.504,0.0,0.00015,0.0,4,3,6
23.831,2730112.524,-0.00061,0.00015,-0.00061,4,3,6
23.853,2730112.543,0.0,-0.00046,-0.00061,4,3,6
23.871,2730112.562,0.0,0.00015,0.0,4,3,6
23.889,2730112.581,8e-05,0.00015,-0.00061,4,3,6
23.907,2730112.6,8e-05,-0.00046,-0.00061,4,3,6
23.93,2730112.619,8e-05,8e-05,8e-05,4,3,6
23.949,2730112.638,0.00069,-0.00053,-0.00053,4,3,6
23.967,2730112.657,0.00069,-0.00053,-0.00053,4,3,6
23.985,2730112.676,0.0013,0.00069,-0.00053,4,3,6
24.004,2730112.695,-0.00053,-0.00053,8e-05,4,3,6
24.026,2730112.714,0.00069,0.00069,8e-05,4,3,6
24.042,2730112.733,-0.00053,-0.00053,8e-05,4,3,6
24.061,2730112.752,8e-05,-0.00115,0.00076,4,3,6
24.081,2730112.771,-0.00053,-0.00053,0.00015,4,3,6
24.098,2730112.79,0.0,-0.00053,0.00015,4,3,6
24.117,2730112.809,0.0,8e-05,0.00015,4,3,6
24.136,2730112.828,0.0,-0.00053,0.00015,4,3,6
24.155,2730112.847,0.0,-0.00053,-0.00046,4,3,6
24.175,2730112.866,-0.00061,8e-05,0.00015,4,3,6
24.193,2730112.885,0.00061,-0.00053,0.00015,4,3,6
24.212,2730112.904,-0.00122,8e-05,-0.00038,4,3,6
24.231,2730112.923,0.00122,8e-05,-0.00038,4,3,6
24.251,2730112.942,-0.00061,8e-05,-0.00038,4,3,6
24.271,2730112.961,0.00122,-0.00046,0.00023,4,3,6
24.288,2730112.98,-0.00122,0.00076,0.00023,4,3,6
24.307,2730112.999,-0.0,-0.00046,0.00084,4,3,6
24.331,2730113.018,-0.00061,0.00015,0.00023,4,3,6
24.35,2730113.037,0.00183,-0.00046,0.00023,4,3,6
24.367,2730113.056,-0.00061,-0.00046,0.00023,4,3,6
24.383,2730113.075,-0.0,0.00015,0.00023,4,3,6
24.403,2730113.094,-0.0,0.00023,0.00023,4,3,6
24.426,2730113.113,-0.00061,0.00084,0.00023,4,3,6
24.442,2730113.132,-0.00069,-0.00038,0.00023,4,3,6
24.464,2730113.151,-0.00069,-0.00038,-0.00038,4,3,6
24.484,2730113.17,0.00053,-0.00038,0.00023,4,3,6
24.501,2730113.189,-0.00069,-0.0016,0.00023,4,3,6
24.519,2730113.208,0.00061,0.00023,0.00023,4,3,6
24.536,2730113.227,-0.00061,0.00023,0.00023,4,3,6
24.557,2730113.246,-0.0,0.00023,0.00015,4,3,6
24.576,2730113.265,-0.00061,0.00084,0.00015,4,3,6
24.597,2730113.284,-0.0,-0.00031,0.00015,4,3,6
24.611,2730113.303,-0.00061,-0.00031,0.00015,4,3,6
24.632,2730113.322,-0.0,0.00031,0.00015,4,3,6
24.651,2730113.341,-0.00061,0.00031,0.00015,4,3,6
24.67,2730113.36,0.0,0.00031,0.00076,4,3,6
24.688,2730113.379,0.00061,0.00031,0.00076,4,3,6
24.71,2730113.398,-0.00061,0.00031,0.00015,4,3,6
24.728,2730113.417,0.0,0.00031,-0.00046,4,3,6
24.75,2730113.437,-0.00053,-0.00031,-0.00046,4,3,6
24.768,2730113.456,8e-05,-0.00031,-0.00053,4,3,6
24.784,2730113.475,8e-05,-0.00153,8e-05,4,3,6
24.804,2730113.494,0.00069,0.00031,8e-05,4,3,6
24.826,2730113.513,-0.00053,0.00031,-0.00053,4,3,6
24.84,2730113.532,0.00069,-0.00092,-0.00053,4,3,6
24.863,2730113.551,8e-05,0.00031,8e-05,4,3,6
24.882,2730113.57,0.00069,-0.00031,8e-05,4,3,6
24.9,2730113.589,-0.00053,0.00031,8e-05,4,3,6
24.915,2730113.608,8e-05,0.00031,8e-05,4,3,6
24.935,2730113.627,0.00076,-0.00092,0.00069,4,3,6
24.954,2730113.646,0.00015,0.00031,8e-05,4,3,6
24.974,2730113.665,0.00015,0.00031,8e-05,4,3,6
24.994,2730113.684,-0.00046,-0.00031,8e-05,4,3,6
25.011,2730113.703,0.00076,0.00092,8e-05,4,3,6
25.031,2730113.722,-0.00046,-0.00031,8e-05,4,3,6
25.051,2730113.741,0.00015,0.00092,8e-05,4,3,6
25.07,2730113.76,0.00015,0.00092,8e-05,4,3,6
25.092,2730113.779,0.00137,0.00031,-0.00053,4,3,6
25.107,2730113.798,0.00015,-0.00031,8e-05,4,3,6
25.127,2730113.817,0.00076,-0.00031,8e-05,4,3,6
25.149,2730113.836,8e-05,-0.00031,8e-05,4,3,6
25.174,2730113.855,8e-05,0.00031,8e-05,4,3,6
25.182,2730113.874,-0.00053,-0.00031,8e-05,4,3,6
25.201,2730113.893,8e-05,0.00031,-0.00053,4,3,6
25.221,2730113.912,0.00069,0.00031,8e-05,4,3,6
25.24,2730113.931,8e-05,0.00031,8e-05,4,3,6
25.259,2730113.95,0.00069,0.00092,-0.00053,4,3,6
25.278,2730113.969,8e-05,0.00031,8e-05,4,3,6
25.298,2730113.988,0.00069,0.00031,8e-05,4,3,6
25.318,2730114.007,-0.00061,0.00031,8e-05,4,3,6
25.336,2730114.026,0.00061,0.00092,8e-05,4,3,6
25.358,2730114.045,-0.00061,-0.00031,8e-05,4,3,6
25.373,2730114.064,0.00061,0.00031,0.00069,4,3,6
25.392,2730114.083,-0.00061,0.00031,8e-05,4,3,6
25.41,2730114.102,-0.00061,0.00023,-0.00053,4,3,6
25.431,2730114.121,-0.0,0.00023,-0.00053,4,3,6
25.447,2730114.14,-8e-05,0.00023,8e-05,4,3,6
25.47,2730114.159,-8e-05,-0.00099,8e-05,4,3,6
25.487,2730114.178,-8e-05,0.00084,8e-05,4,3,6
25.508,2730114.197,-8e-05,0.00023,8e-05,4,3,6
25.526,2730114.216,-0.00069,0.00023,8e-05,4,3,6
25.545,2730114.235,0.00053,0.00015,8e-05,4,3,6
25.567,2730114.254,-8e-05,-0.00107,8e-05,4,3,6
25.585,2730114.273,-8e-05,0.00015,8e-05,4,3,6
25.602,2730114.292,-0.00069,-0.00046,8e-05,4,3,6
25.622,2730114.311,-8e-05,0.00015,8e-05,4,3,6
25.639,2730114.33,-0.00069,0.00076,0.00069,4,3,6
25.658,2730114.35,0.00053,0.00015,-0.00053,4,3,6
25.682,2730114.369,-8e-05,0.00015,8e-05,4,3,6
25.701,2730114.388,-8e-05,0.00076,-0.00053,4,3,6
25.716,2730114.407,-8e-05,8e-05,8e-05,4,3,6
25.735,2730114.426,-8e-05,8e-05,-0.00053,4,3,6
25.757,2730114.445,0.00115,8e-05,-0.00053,4,3,6
25.773,2730114.464,-8e-05,8e-05,-0.00053,4,3,6
25.793,2730114.483,-8e-05,8e-05,8e-05,4,3,6
25.811,2730114.502,-8e-05,-0.00053,8e-05,4,3,6
25.831,2730114.521,-0.0,8e-05,-0.00053,4,3,6
25.85,2730114.54,-0.00122,-0.00053,8e-05,4,3,6
25.87,2730114.559,0.00061,-0.00053,8e-05,4,3,6
25.886,2730114.578,-0.00061,8e-05,8e-05,4,3,6
25.906,2730114.597,-0.00061,8e-05,-0.00053,4,3,6
25.929,2730114.616,-0.00061,8e-05,8e-05,4,3,6
25.948,2730114.635,0.00061,8e-05,0.00069,4,3,6
25.965,2730114.654,-0.0,-0.00053,8e-05,4,3,6
25.994,2730114.673,0.0,8e-05,8e-05,4,3,6
26.001,2730114.692,0.00061,-0.00053,8e-05,4,3,6
26.02,2730114.711,0.00061,8e-05,8e-05,4,3,6
26.04,2730114.73,0.00061,0.00069,-0.00053,4,3,6
26.06,2730114.749,0.0,8e-05,8e-05,4,3,6
26.079,2730114.768,0.0,8e-05,0.00015,4,3,6
26.096,2730114.787,-0.00122,0.00069,0.00015,4,3,6
26.116,2730114.806,0.00122,8e-05,0.00076,4,3,6
26.133,2730114.825,0.0,-0.00053,0.00076,4,3,6
26.152,2730114.844,0.00061,-0.00053,0.00015,4,3,6
26.173,2730114.863,0.0,-0.00053,0.00015,4,3,6
26.191,2730114.882,0.0,8e-05,-0.00046,4,3,6
26.208,2730114.901,0.0,8e-05,0.00015,4,3,6
26.23,2730114.92,0.0,8e-05,0.00015,4,3,6
26.25,2730114.939,0.0,8e-05,0.00015,4,3,6
26.268,2730114.958,-0.00061,0.00069,-0.00046,4,3,6
26.286,2730114.977,0.00061,0.00069,0.00015,4,3,6
26.31,2730114.996,-0.0,0.00069,0.00015,4,3,6
26.328,2730115.015,0.00061,8e-05,-0.00046,4,3,6
26.346,2730115.034,-0.0,8e-05,-0.00046,4,3,6
26.365,2730115.053,-0.0,8e-05,-0.00053,4,3,6
26.383,2730115.072,-0.00061,8e-05,8e-05,4,3,6
26.399,2730115.091,0.00061,8e-05,8e-05,4,3,6
26.42,2730115.11,-0.00061,-0.00053,8e-05,4,3,6
26.439,2730115.129,-0.0,8e-05,-0.00053,4,3,6
26.457,2730115.148,-0.00061,8e-05,8e-05,4,3,6
26.476,2730115.167,0.00053,-0.00053,8e-05,4,3,6
26.495,2730115.186,-8e-05,8e-05,8e-05,4,3,6
26.514,2730115.205,0.00053,8e-05,8e-05,4,3,6
26.533,2730115.224,-8e-05,8e-05,8e-05,4,3,6
26.552,2730115.244,-8e-05,8e-05,8e-05,4,3,6
26.572,2730115.263,0.00053,8e-05,8e-05,4,3,6
26.59,2730115.282,-0.00069,8e-05,8e-05,4,3,6
26.608,2730115.301,0.00053,-0.00053,8e-05,4,3,6
26.631,2730115.32,-0.00069,8e-05,8e-05,4,3,6
26.647,2730115.339,0.00053,8e-05,8e-05,4,3,6
26.668,2730115.358,-0.00069,8e-05,8e-05,4,3,6
26.686,2730115.377,0.00115,0.0,0.00069,4,3,6
26.704,2730115.396,-0.00069,0.0,-0.00053,4,3,6
26.722,2730115.415,0.00053,0.0,-0.00053,4,3,6
26.742,2730115.434,-0.00069,-0.00061,-0.00053,4,3,6
26.762,2730115.453,-8e-05,0.0,8e-05,4,3,6
26.78,2730115.472,-8e-05,-0.00061,0.00069,4,3,6
26.801,2730115.491,-8e-05,0.0,8e-05,4,3,6
26.818,2730115.51,0.00053,0.0,-0.00053,4,3,6
26.838,2730115.529,-8e-05,0.0,8e-05,4,3,6
26.857,2730115.548,0.00053,0.0,8e-05,4,3,6
26.875,2730115.567,-0.00069,0.0,-0.00053,4,3,6
26.895,2730115.586,0.00053,-0.00061,0.00015,4,3,6
26.914,2730115.605,-0.00069,-0.00061,0.00015,4,3,6
26.932,2730115.624,-8e-05,8e-05,0.00015,4,3,6
26.951,2730115.643,-0.00069,8e-05,8e-05,4,3,6
26.973,2730115.662,0.00053,0.00069,0.00069,4,3,6
26.989,2730115.681,-0.00069,-0.00053,8e-05,4,3,6
27.008,2730115.7,-8e-05,8e-05,8e-05,4,3,6
27.026,2730115.719,-8e-05,8e-05,8e-05,4,3,6
27.048,2730115.738,0.00053,8e-05,8e-05,4,3,6
27.065,2730115.757,0.00053,8e-05,0.00069,4,3,6
27.084,2730115.776,-0.00069,8e-05,8e-05,4,3,6
27.107,2730115.795,0.00053,8e-05,-0.00053,4,3,6
27.122,2730115.814,-8e-05,8e-05,8e-05,4,3,6
27.148,2730115.833,0.00053,8e-05,8e-05,4,3,6
27.172,2730115.852,-8e-05,-0.00053,-0.00053,4,3,6
27.18,2730115.871,0.00053,8e-05,8e-05,4,3,6
27.198,2730115.89,-0.00069,8e-05,8e-05,4,3,6
27.218,2730115.909,-8e-05,8e-05,8e-05,4,3,6
27.236,2730115.928,-0.0013,-0.00053,8e-05,4,3,6
27.255,2730115.947,-8e-05,8e-05,8e-05,4,3,6
27.277,2730115.966,-0.00069,8e-05,-0.00053,4,3,6
27.293,2730115.985,-8e-05,-0.00053,-0.00053,4,3,6
27.312,2730116.004,-8e-05,-0.00053,8e-05,4,3,6
27.331,2730116.023,0.00053,0.00015,8e-05,4,3,6
27.35,2730116.042,0.00053,0.00015,-0.00053,4,3,6
27.37,2730116.061,-0.00069,-0.00107,-0.00053,4,3,6
27.389,2730116.08,-8e-05,0.00015,-0.00053,4,3,6
27.407,2730116.099,-0.00069,0.00015,8e-05,4,3,6
27.427,2730116.118,0.00053,0.00015,0.00069,4,3,6
27.453,2730116.137,-0.0,0.00015,0.00069,4,3,6
27.47,2730116.157,-0.0,0.00015,-0.00053,4,3,6
27.483,2730116.176,-0.00061,-0.00046,8e-05,4,3,6
27.504,2730116.195,-0.0,-0.00046,8e-05,4,3,6
27.523,2730116.214,-0.00122,0.00015,-0.00053,4,3,6
27.541,2730116.233,-0.0,0.00015,8e-05,4,3,6
27.565,2730116.252,-0.0,0.00015,8e-05,4,3,6
27.584,2730116.271,-0.0,0.00076,8e-05,4,3,6
27.599,2730116.29,-0.0,0.00015,8e-05,4,3,6
27.618,2730116.309,-0.00122,-0.00046,0.00069,4,3,6
27.636,2730116.328,-0.0,-0.00046,8e-05,4,3,6
27.657,2730116.347,-0.00061,0.00015,8e-05,4,3,6
27.675,2730116.366,0.00061,0.00015,0.00069,4,3,6
27.694,2730116.385,-0.00061,-0.00046,8e-05,4,3,6
27.712,2730116.404,0.00061,0.00076,8e-05,4,3,6
27.732,2730116.423,-0.00053,0.00015,8e-05,4,3,6
27.751,2730116.442,0.00069,0.00076,8e-05,4,3,6
27.771,2730116.461,8e-05,-0.00046,8e-05,4,3,6
27.789,2730116.48,0.0013,0.00015,8e-05,4,3,6
27.807,2730116.499,8e-05,-0.00046,-0.00053,4,3,6
27.831,2730116.518,8e-05,-0.00046,-0.00053,4,3,6
27.851,2730116.537,8e-05,-0.00046,-0.00053,4,3,6
27.866,2730116.556,8e-05,0.00015,-0.00053,4,3,6
27.882,2730116.575,0.00069,0.00076,8e-05,4,3,6
27.903,2730116.594,-0.00053,-0.00046,8e-05,4,3,6
27.925,2730116.613,0.00069,-0.00046,8e-05,4,3,6
27.944,2730116.632,0.00069,0.00015,-0.00053,4,3,6
27.961,2730116.651,0.00069,-0.00046,-0.00053,4,3,6
27.982,2730116.67,-0.00115,0.00015,8e-05,4,3,6
27.999,2730116.689,8e-05,0.00015,8e-05,4,3,6
28.017,2730116.708,-0.00053,-0.00046,8e-05,4,3,6
28.035,2730116.727,8e-05,0.00015,-0.00053,4,3,6
28.055,2730116.746,8e-05,-0.00046,8e-05,4,3,6
28.075,2730116.765,0.00069,0.00076,8e-05,4,3,6
28.094,2730116.784,-0.00053,-0.00046,0.00069,4,3,6
28.112,2730116.803,8e-05,0.00015,-0.00053,4,3,6
28.131,2730116.822,0.00069,-0.00046,8e-05,4,3,6
28.151,2730116.841,-0.00053,0.00015,-0.00053,4,3,6
28.169,2730116.86,8e-05,0.00015,8e-05,4,3,6
28.189,2730116.879,8e-05,0.00015,8e-05,4,3,6
28.207,2730116.898,8e-05,0.00015,8e-05,4,3,6
28.231,2730116.917,0.0,-0.00046,8e-05,4,3,6
28.247,2730116.936,0.00122,-0.00046,8e-05,4,3,6
28.267,2730116.955,-0.00061,0.00015,8e-05,4,3,6
28.284,2730116.974,0.0,0.00015,-0.00046,4,3,6
28.302,2730116.993,-0.00061,0.00015,0.00076,4,3,6
28.321,2730117.012,0.00061,0.00015,0.00015,4,3,6
28.34,2730117.031,-0.0,0.00015,0.00015,4,3,6
28.363,2730117.051,0.00061,0.00015,0.00076,4,3,6
28.378,2730117.07,-0.0,0.00015,0.00015,4,3,6
28.396,2730117.089,-0.0,0.00015,0.00015,4,3,6
28.415,2730117.108,-0.0,0.00084,0.00015,4,3,6
28.435,2730117.127,-0.0,-0.00038,0.00015,4,3,6
28.455,2730117.146,-0.0,0.00023,-0.00046,4,3,6
28.477,2730117.165,-0.00061,-0.00038,0.00076,4,3,6
28.493,2730117.184,0.00061,0.00015,0.00015,4,3,6
28.511,2730117.203,-0.0,-0.00046,-0.00046,4,3,6
28.53,2730117.222,0.00061,0.00015,-0.00046,4,3,6
28.551,2730117.241,-0.0,0.00015,-0.00046,4,3,6
28.57,2730117.26,0.00061,0.00015,0.00015,4,3,6
28.588,2730117.279,-0.0,0.00015,-0.00046,4,3,6
28.61,2730117.298,-0.0,0.00015,8e-05,4,3,6
28.631,2730117.317,-0.00069,-0.00046,8e-05,4,3,6
28.645,2730117.336,-8e-05,0.00015,-0.00053,4,3,6
28.667,2730117.355,0.00053,-0.00046,-0.00053,4,3,6
28.683,2730117.374,0.00053,0.00015,-0.00053,4,3,6
28.701,2730117.393,-8e-05,-0.00046,-0.00053,4,3,6
28.722,2730117.412,-0.00069,0.00015,8e-05,4,3,6
28.74,2730117.431,0.00053,0.00015,8e-05,4,3,6
28.76,2730117.45,-0.00069,-0.00046,8e-05,4,3,6
28.778,2730117.469,0.00053,0.00015,8e-05,4,3,6
28.796,2730117.488,-8e-05,-0.00046,8e-05,4,3,6
28.815,2730117.507,0.00053,0.00015,8e-05,4,3,6
28.835,2730117.526,-8e-05,0.00015,8e-05,4,3,6
28.855,2730117.545,0.00115,0.00015,8e-05,4,3,6
28.876,2730117.564,-8e-05,-0.00107,8e-05,4,3,6
28.892,2730117.583,-8e-05,0.00015,0.00069,4,3,6
28.91,2730117.602,-0.00069,0.00015,0.00015,4,3,6
28.931,2730117.621,-0.00069,-0.00046,0.00015,4,3,6
28.95,2730117.64,-8e-05,0.00015,0.00015,4,3,6
28.968,2730117.659,-0.00069,-0.00046,0.00015,4,3,6
28.988,2730117.678,0.00053,0.00076,0.00015,4,3,6
29.006,2730117.697,-0.0013,0.00015,0.00015,4,3,6
29.029,2730117.716,0.00053,0.00015,0.00015,4,3,6
29.048,2730117.735,-0.00069,0.00015,0.00015,4,3,6
29.065,2730117.754,-8e-05,-0.00046,0.00015,4,3,6
29.083,2730117.773,-8e-05,-0.00046,-0.00046,4,3,6
29.106,2730117.792,0.00053,0.00015,0.00015,4,3,6
29.121,2730117.811,-8e-05,0.00015,0.00015,4,3,6
29.139,2730117.83,-8e-05,0.00015,-0.00046,4,3,6
29.16,2730117.849,-0.00069,0.00015,-0.00046,4,3,6
29.178,2730117.868,-8e-05,0.00084,0.00015,4,3,6
29.196,2730117.887,0.00053,-0.00038,0.00015,4,3,6
29.214,2730117.906,-8e-05,-0.00038,0.00015,4,3,6
29.234,2730117.925,-8e-05,0.00023,-0.00046,4,3,6
29.254,2730117.944,-0.00069,0.00023,0.00015,4,3,6
29.275,2730117.964,0.00053,-0.00038,0.00015,4,3,6
29.292,2730117.983,-0.00069,-0.00038,0.00015,4,3,6
29.309,2730118.002,0.00053,0.00023,0.00015,4,3,6
29.33,2730118.021,-0.00069,-0.00038,-0.00053,4,3,6
29.352,2730118.04,-8e-05,0.00084,-0.00115,4,3,6
29.369,2730118.059,-0.00061,0.00023,8e-05,4,3,6
29.387,2730118.078,-0.0,0.00023,8e-05,4,3,6
29.407,2730118.097,-0.0,-0.00038,8e-05,4,3,6
29.429,2730118.116,0.00061,0.00023,8e-05,4,3,6
29.448,2730118.135,-0.0,0.00084,8e-05,4,3,6
29.466,2730118.154,0.0,0.00023,8e-05,4,3,6
29.487,2730118.173,0.00061,-0.00046,-0.00053,4,3,6
29.502,2730118.192,0.0,-0.00046,8e-05,4,3,6
29.52,2730118.211,0.0,0.00015,8e-05,4,3,6
29.538,2730118.23,-0.00061,0.00015,8e-05,4,3,6
29.562,2730118.249,0.0,0.00015,-0.00053,4,3,6
29.58,2730118.268,-0.00061,0.00015,-0.00046,4,3,6
29.598,2730118.287,0.0,0.00015,0.00015,4,3,6
29.618,2730118.306,-0.00061,-0.00046,0.00015,4,3,6
29.634,2730118.325,0.00061,0.00015,-0.00046,4,3,6
29.657,2730118.344,-0.00061,0.00015,-0.00046,4,3,6
29.673,2730118.363,0.0,0.00015,-0.00046,4,3,6
29.692,2730118.382,0.0,-0.00046,0.00015,4,3,6
29.708,2730118.401,0.00069,-0.00046,0.00015,4,3,6
29.728,2730118.42,8e-05,0.00015,0.00015,4,3,6
29.748,2730118.439,-0.00053,0.00076,-0.00046,4,3,6
29.77,2730118.458,8e-05,0.00015,0.00015,4,3,6
29.788,2730118.477,-0.00053,0.00015,-0.00046,4,3,6
29.806,2730118.496,8e-05,-0.00046,0.00015,4,3,6
29.83,2730118.515,-0.00053,0.00015,0.00084,4,3,6
29.844,2730118.534,8e-05,0.00015,0.00084,4,3,6
29.863,2730118.553,-0.00053,-0.00046,0.00084,4,3,6
29.886,2730118.572,8e-05,-0.00046,0.00023,4,3,6
29.902,2730118.591,-0.00053,-0.00046,0.00023,4,3,6
29.92,2730118.61,8e-05,0.00015,-0.00038,4,3,6
29.943,2730118.629,8e-05,0.00015,-0.00038,4,3,6
29.957,2730118.648,8e-05,0.00015,0.00023,4,3,6
29.979,2730118.667,-0.00053,0.00015,0.00023,4,3,6
29.996,2730118.686,-0.00053,0.00015,0.00084,4,3,6
30.018,2730118.705,8e-05,0.00015,0.00023,4,3,6
30.034,2730118.724,8e-05,-0.00046,-0.00038,4,3,6
30.053,2730118.743,0.0013,0.00015,-0.00038,4,3,6
30.072,2730118.762,-0.00053,0.00015,0.00023,4,3,6
30.095,2730118.781,0.00069,0.00015,-0.00046,4,3,6
30.107,2730118.8,-0.00053,-0.00046,0.00015,4,3,6
30.127,2730118.819,0.00069,0.00015,0.00015,4,3,6
30.148,2730118.838,0.00015,-0.00046,0.00015,4,3,6
30.165,2730118.858,0.00076,0.00015,0.00015,4,3,6
30.183,2730118.877,0.00015,-0.00107,0.00015,4,3,6
30.205,2730118.896,0.00137,-0.00046,0.00015,4,3,6
30.224,2730118.915,0.00015,-0.00046,0.00015,4,3,6
30.244,2730118.934,0.00076,0.00015,0.00015,4,3,6
30.262,2730118.953,0.00076,0.00015,0.00015,4,3,6
30.284,2730118.972,0.00015,0.00015,0.00015,4,3,6
30.3,2730118.991,0.00076,-0.00046,0.00015,4,3,6
30.319,2730119.01,0.00015,0.00015,0.00015,4,3,6
30.339,2730119.029,0.00069,-0.00046,0.00015,4,3,6
30.361,2730119.048,8e-05,0.00015,-0.00053,4,3,6
30.376,2730119.067,0.00069,-0.00046,-0.00053,4,3,6
30.394,2730119.086,8e-05,-0.00038,-0.00053,4,3,6
30.413,2730119.105,8e-05,-0.00038,8e-05,4,3,6
30.432,2730119.124,8e-05,-0.00038,8e-05,4,3,6
30.452,2730119.143,0.00069,0.00023,8e-05,4,3,6
30.476,2730119.162,-0.00061,0.00023,8e-05,4,3,6
30.489,2730119.181,0.0,-0.00038,0.00069,4,3,6
30.507,2730119.2,-0.00061,0.00023,0.00069,4,3,6
30.527,2730119.219,-0.0,0.00023,8e-05,4,3,6
30.551,2730119.238,0.00053,-0.00038,8e-05,4,3,6
30.567,2730119.257,-8e-05,-0.00038,8e-05,4,3,6
30.585,2730119.276,0.00053,0.00023,8e-05,4,3,6
30.603,2730119.295,-0.00069,-0.00038,8e-05,4,3,6
30.626,2730119.314,0.00053,0.00031,8e-05,4,3,6
30.642,2730119.333,-0.00076,-0.00031,-0.00053,4,3,6
30.664,2730119.352,-0.00015,0.00031,-0.00053,4,3,6
30.682,2730119.371,-0.00076,0.00031,8e-05,4,3,6
30.702,2730119.39,-0.00015,0.00031,8e-05,4,3,6
30.718,2730119.409,-0.00015,-0.00031,-0.00053,4,3,6
30.737,2730119.428,0.00046,0.00031,8e-05,4,3,6
30.759,2730119.447,-0.00076,0.00031,8e-05,4,3,6
30.779,2730119.466,0.00046,0.00031,8e-05,4,3,6
30.796,2730119.485,-0.00015,0.00031,-0.00053,4,3,6
30.812,2730119.504,0.00046,0.00031,-0.00053,4,3,6
30.831,2730119.523,0.00107,0.00092,8e-05,4,3,6
30.851,2730119.542,-0.00076,0.00031,0.00069,4,3,6
30.871,2730119.561,-0.00015,0.00031,8e-05,4,3,6
30.889,2730119.58,-0.00015,0.00031,8e-05,4,3,6
30.906,2730119.599,0.00046,0.00031,-0.00053,4,3,6
30.928,2730119.618,-0.00076,0.00031,8e-05,4,3,6
30.95,2730119.637,0.00046,0.00031,-0.00053,4,3,6
30.971,2730119.656,-0.00137,-0.00031,8e-05,4,3,6
30.983,2730119.675,-0.00015,0.00031,8e-05,4,3,6
31.007,2730119.694,-0.00076,0.00031,8e-05,4,3,6
31.022,2730119.713,-0.00015,0.00023,8e-05,4,3,6
31.041,2730119.732,-0.00069,0.00023,8e-05,4,3,6
31.06,2730119.751,-0.00069,0.00023,8e-05,4,3,6
31.08,2730119.771,-8e-05,0.00023,0.00069,4,3,6
31.105,2730119.79,-0.00069,-0.00038,8e-05,4,3,6
31.118,2730119.809,-8e-05,0.00023,8e-05,4,3,6
31.136,2730119.828,-0.0013,-0.00038,8e-05,4,3,6
31.17,2730119.847,0.00053,-0.00046,8e-05,4,3,6
31.177,2730119.866,-0.00069,-0.00046,8e-05,4,3,6
31.194,2730119.885,0.00053,0.00015,8e-05,4,3,6
31.211,2730119.904,-0.00061,0.00015,8e-05,4,3,6
31.231,2730119.923,0.00061,0.00015,8e-05,4,3,6
31.249,2730119.942,-0.0,0.00015,8e-05,4,3,6
31.268,2730119.961,0.00061,0.00015,8e-05,4,3,6
31.287,2730119.98,0.0,-0.00046,8e-05,4,3,6
31.305,2730119.999,0.0,0.00015,8e-05,4,3,6
31.326,2730120.018,0.0,8e-05,-0.00053,4,3,6
31.344,2730120.037,8e-05,8e-05,0.00069,4,3,6
31.364,2730120.056,0.00069,8e-05,8e-05,4,3,6
31.381,2730120.075,8e-05,8e-05,8e-05,4,3,6
31.401,2730120.094,8e-05,8e-05,-0.00053,4,3,6
31.42,2730120.113,-0.00053,-0.00053,-0.00053,4,3,6
31.439,2730120.132,8e-05,0.00069,-0.00053,4,3,6
31.459,2730120.151,8e-05,-0.00053,8e-05,4,3,6
31.477,2730120.17,0.00069,8e-05,8e-05,4,3,6
31.497,2730120.189,8e-05,-0.00053,8e-05,4,3,6
31.515,2730120.208,0.0013,-0.00053,8e-05,4,3,6
31.534,2730120.227,0.00069,8e-05,8e-05,4,3,6
31.553,2730120.246,8e-05,8e-05,-0.00053,4,3,6
31.572,2730120.265,8e-05,0.00015,8e-05,4,3,6
31.591,2730120.284,8e-05,0.00015,-0.00053,4,3,6
31.61,2730120.303,8e-05,0.00015,8e-05,4,3,6
31.629,2730120.322,-0.00053,-0.00046,8e-05,4,3,6
31.648,2730120.341,0.00069,-0.00046,8e-05,4,3,6
31.669,2730120.36,8e-05,-0.00046,8e-05,4,3,6
31.686,2730120.379,0.00069,0.00015,8e-05,4,3,6
31.708,2730120.398,-0.00053,-0.00046,-0.00053,4,3,6
31.729,2730120.417,0.00061,-0.00046,0.00069,4,3,6
31.746,2730120.436,-0.00061,0.00015,8e-05,4,3,6
31.765,2730120.455,0.0,-0.00046,-0.00053,4,3,6
31.783,2730120.474,-0.00061,0.00015,-0.00053,4,3,6
31.802,2730120.493,-0.0,0.00076,8e-05,4,3,6
31.824,2730120.512,-0.0,-0.00046,0.00069,4,3,6
31.841,2730120.531,-0.00061,-0.00046,8e-05,4,3,6
31.86,2730120.55,-0.00069,0.00015,8e-05,4,3,6
31.879,2730120.569,-8e-05,-0.00046,8e-05,4,3,6
31.901,2730120.588,-8e-05,0.00015,-0.00053,4,3,6
31.916,2730120.607,-0.00069,0.00015,8e-05,4,3,6
31.935,2730120.626,0.00053,0.00015,8e-05,4,3,6
31.955,2730120.645,-0.00069,0.00023,8e-05,4,3,6
31.976,2730120.665,-8e-05,0.00084,-0.00046,4,3,6
31.996,2730120.684,-0.00069,-0.00038,-0.00046,4,3,6
32.01,2730120.703,0.00053,0.00023,-0.00046,4,3,6
32.031,2730120.722,-0.00069,-0.00038,0.00015,4,3,6
32.049,2730120.741,-8e-05,0.00084,0.00015,4,3,6
32.069,2730120.76,-0.00069,-0.00038,0.00015,4,3,6
32.087,2730120.779,-8e-05,-0.00038,0.00015,4,3,6
32.107,2730120.798,-8e-05,-0.00038,0.00015,4,3,6
32.127,2730120.817,-0.00061,0.00023,0.00015,4,3,6
32.145,2730120.836,-0.0,0.00023,-0.00046,4,3,6
32.163,2730120.855,-0.00122,-0.00038,0.00015,4,3,6
32.181,2730120.874,0.00061,0.00023,0.00015,4,3,6
32.201,2730120.893,0.0,0.00023,0.00015,4,3,6
32.222,2730120.912,0.00061,0.00023,-0.00046,4,3,6
32.24,2730120.931,-0.00053,0.00023,-0.00046,4,3,6
32.262,2730120.95,0.00069,0.00023,0.00015,4,3,6
32.281,2730120.969,-0.00053,0.00023,0.00015,4,3,6
32.298,2730120.988,8e-05,0.00023,0.00015,4,3,6
32.315,2730121.007,8e-05,0.00084,-0.00046,4,3,6
32.339,2730121.026,8e-05,0.00084,0.00015,4,3,6
32.354,2730121.045,8e-05,0.00023,0.00015,4,3,6
32.373,2730121.064,0.00015,0.00023,0.00015,4,3,6
32.391,2730121.083,0.00015,0.00023,0.00076,4,3,6
32.41,2730121.102,-0.00046,0.00023,0.00015,4,3,6
32.428,2730121.121,0.00015,0.00015,0.00015,4,3,6
32.45,2730121.14,-0.00046,0.00015,-0.00046,4,3,6
32.467,2730121.159,0.00015,0.00015,0.00015,4,3,6
32.487,2730121.178,-0.00046,-0.00046,0.00015,4,3,6
32.506,2730121.197,0.00076,0.00015,0.00015,4,3,6
32.527,2730121.216,0.00015,-0.00046,0.00015,4,3,6
32.548,2730121.235,0.00015,0.00015,-0.00046,4,3,6
32.567,2730121.254,0.00015,-0.00046,0.00015,4,3,6
32.586,2730121.273,0.00076,0.00015,0.00015,4,3,6
32.602,2730121.292,0.00015,8e-05,-0.00046,4,3,6
32.621,2730121.311,0.00015,8e-05,0.00015,4,3,6
32.643,2730121.33,0.00015,8e-05,0.00015,4,3,6
32.659,2730121.349,0.00015,-0.00053,-0.00046,4,3,6
32.678,2730121.368,0.00015,-0.00053,-0.00046,4,3,6
32.698,2730121.387,-0.00046,8e-05,0.00015,4,3,6
32.714,2730121.406,0.00076,8e-05,-0.00046,4,3,6
32.734,2730121.425,-0.00046,8e-05,-0.00107,4,3,6
32.755,2730121.444,0.00015,8e-05,-0.00046,4,3,6
32.777,2730121.463,-0.00053,8e-05,-0.00046,4,3,6
32.791,2730121.482,8e-05,8e-05,-0.00046,4,3,6
32.809,2730121.501,-0.00053,-0.00053,0.00015,4,3,6
32.83,2730121.52,8e-05,0.00069,0.00015,4,3,6
32.847,2730121.539,-0.00053,0.00069,-0.00046,4,3,6
32.87,2730121.558,8e-05,8e-05,-0.00046,4,3,6
32.887,2730121.578,-0.00053,-0.00053,-0.00046,4,3,6
32.907,2730121.597,8e-05,8e-05,-0.00046,4,3,6
32.929,2730121.616,8e-05,8e-05,0.00015,4,3,6
32.947,2730121.635,8e-05,8e-05,0.00015,4,3,6
32.963,2730121.654,0.00069,0.00069,-0.00046,4,3,6
32.985,2730121.673,-0.00053,0.00069,-0.00038,4,3,6
33.001,2730121.692,8e-05,8e-05,0.00023,4,3,6
33.02,2730121.711,-0.00053,8e-05,0.00023,4,3,6
33.039,2730121.73,0.00069,8e-05,0.00084,4,3,6
33.058,2730121.749,8e-05,-0.00053,0.00023,4,3,6
33.076,2730121.768,0.00069,8e-05,0.00023,4,3,6
33.096,2730121.787,8e-05,8e-05,-0.00038,4,3,6
33.114,2730121.806,0.00069,8e-05,-0.00031,4,3,6
33.134,2730121.825,8e-05,-0.00053,-0.00031,4,3,6
33.163,2730121.844,8e-05,-0.00053,0.00031,4,3,6
33.171,2730121.863,8e-05,-0.00053,0.00031,4,3,6
33.189,2730121.882,-0.00053,8e-05,0.00031,4,3,6
33.208,2730121.901,-0.00053,-0.00053,0.00031,4,3,6
33.227,2730121.92,-0.00053,8e-05,-0.00031,4,3,6
33.249,2730121.939,-0.00053,8e-05,0.00031,4,3,6
33.269,2730121.958,8e-05,8e-05,0.00031,4,3,6
33.284,2730121.977,0.00069,8e-05,0.00031,4,3,6
33.305,2730121.996,-0.00053,-0.00053,0.00031,4,3,6
33.325,2730122.015,8e-05,8e-05,0.00031,4,3,6
33.346,2730122.034,8e-05,-0.00053,0.00031,4,3,6
33.366,2730122.053,0.0013,8e-05,0.00031,4,3,6
33.381,2730122.072,-0.00053,-0.00053,0.00031,4,3,6
33.399,2730122.091,8e-05,8e-05,0.00031,4,3,6
33.418,2730122.11,8e-05,8e-05,0.00031,4,3,6
33.438,2730122.129,8e-05,8e-05,0.00031,4,3,6
33.457,2730122.148,8e-05,8e-05,-0.00031,4,3,6
33.48,2730122.167,8e-05,-0.00053,-0.00031,4,3,6
33.495,2730122.186,8e-05,8e-05,-0.00031,4,3,6
33.513,2730122.205,-0.00115,8e-05,0.00023,4,3,6
33.535,2730122.224,8e-05,0.00069,0.00023,4,3,6
33.554,2730122.243,-0.00115,8e-05,0.00023,4,3,6
33.572,2730122.262,8e-05,8e-05,-0.00038,4,3,6
33.589,2730122.281,8e-05,8e-05,-0.00038,4,3,6
33.607,2730122.3,0.00069,-0.00046,-0.00038,4,3,6
33.631,2730122.319,-0.00053,0.00015,-0.00038,4,3,6
33.647,2730122.338,0.00069,0.00015,0.00023,4,3,6
33.666,2730122.357,0.00069,0.00015,0.00015,4,3,6
33.685,2730122.376,0.00069,0.00015,0.00076,4,3,6
33.706,2730122.395,8e-05,0.00015,0.00076,4,3,6
33.723,2730122.414,8e-05,0.00015,-0.00046,4,3,6
33.743,2730122.433,0.00069,0.00015,-0.00046,4,3,6
33.766,2730122.452,8e-05,0.00015,-0.00046,4,3,6
33.786,2730122.472,8e-05,-0.00046,0.00015,4,3,6
33.802,2730122.491,-0.00053,0.00015,0.00015,4,3,6
33.818,2730122.51,0.00069,0.00015,0.00015,4,3,6
33.838,2730122.529,-0.00115,0.00015,0.00015,4,3,6
33.857,2730122.548,0.00069,-0.00046,0.00015,4,3,6
33.879,2730122.567,-0.00053,-0.00046,0.00015,4,3,6
33.898,2730122.586,8e-05,0.00015,0.00015,4,3,6
33.918,2730122.605,-0.00053,0.00076,0.00015,4,3,6
33.934,2730122.624,8e-05,0.00015,0.00015,4,3,6
33.952,2730122.643,8e-05,0.00015,0.00076,4,3,6
33.971,2730122.662,8e-05,-0.00046,0.00076,4,3,6
33.99,2730122.681,8e-05,0.00015,0.00076,4,3,6
34.007,2730122.7,-0.00053,0.00015,-0.00046,4,3,6
34.028,2730122.719,8e-05,-0.00053,0.00015,4,3,6
34.047,2730122.738,-0.00053,8e-05,-0.00046,4,3,6
34.066,2730122.757,0.00069,8e-05,0.00015,4,3,6
34.084,2730122.776,-0.00053,8e-05,0.00015,4,3,6
34.108,2730122.795,0.00069,0.00069,0.00015,4,3,6
34.123,2730122.814,-0.00053,-0.00053,0.00015,4,3,6
34.142,2730122.833,8e-05,-0.00053,0.00015,4,3,6
34.161,2730122.852,-0.00053,-0.00053,0.00015,4,3,6
34.181,2730122.871,0.00069,8e-05,0.00076,4,3,6
34.197,2730122.89,8e-05,8e-05,0.00015,4,3,6
34.218,2730122.909,0.00069,8e-05,8e-05,4,3,6
34.238,2730122.928,8e-05,-0.00053,8e-05,4,3,6
34.259,2730122.947,-0.00053,8e-05,-0.00053,4,3,6
34.279,2730122.966,8e-05,-0.00053,-0.00115,4,3,6
34.295,2730122.985,-0.00053,-0.00053,8e-05,4,3,6
34.313,2730123.004,8e-05,8e-05,8e-05,4,3,6
34.332,2730123.023,-0.00053,-0.00053,8e-05,4,3,6
34.351,2730123.042,0.00069,8e-05,0.00069,4,3,6
34.37,2730123.061,-0.00053,0.00015,8e-05,4,3,6
34.388,2730123.08,0.00069,0.00015,8e-05,4,3,6
34.407,2730123.099,-0.00053,0.00015,0.0,4,3,6
34.431,2730123.118,0.00069,0.00015,0.0,4,3,6
34.446,2730123.137,8e-05,0.00015,0.0,4,3,6
34.467,2730123.156,0.00069,0.00015,0.0,4,3,6
34.486,2730123.175,8e-05,-0.00046,0.0,4,3,6
34.503,2730123.194,-0.00053,0.00015,0.0,4,3,6
34.523,2730123.213,8e-05,0.00015,0.0,4,3,6
34.544,2730123.232,0.00069,0.00015,0.00061,4,3,6
34.561,2730123.251,0.00069,-0.00046,0.0,4,3,6
34.58,2730123.27,8e-05,0.00015,-0.00122,4,3,6
34.597,2730123.289,8e-05,0.00015,-0.00061,4,3,6
34.618,2730123.308,8e-05,0.00015,0.0,4,3,6
34.639,2730123.327,8e-05,0.00015,0.0,4,3,6
34.656,2730123.346,8e-05,0.00015,0.0,4,3,6
34.674,2730123.365,8e-05,-0.00046,-0.00061,4,3,6
34.697,2730123.385,-0.00115,-0.00046,-0.00061,4,3,6
34.711,2730123.404,8e-05,0.00015,0.0,4,3,6
34.731,2730123.423,8e-05,0.00015,-0.00061,4,3,6
34.751,2730123.442,8e-05,0.00015,0.0,4,3,6
34.77,2730123.461,8e-05,-0.00046,0.0,4,3,6
34.789,2730123.48,0.00061,0.00015,-0.00053,4,3,6
34.808,2730123.499,0.0,0.00015,-0.00053,4,3,6
34.828,2730123.518,0.0,0.00015,8e-05,4,3,6
34.847,2730123.537,0.00061,-0.00046,8e-05,4,3,6
34.869,2730123.556,0.0,-0.00046,-0.00053,4,3,6
34.884,2730123.575,0.0,0.00015,-0.00053,4,3,6
34.902,2730123.594,-0.00061,0.00015,8e-05,4,3,6
34.924,2730123.613,0.0,0.00015,8e-05,4,3,6
34.942,2730123.632,-0.00061,0.00015,8e-05,4,3,6
34.964,2730123.651,0.00061,-0.00046,8e-05,4,3,6
34.984,2730123.67,-0.00061,-0.00046,8e-05,4,3,6
34.997,2730123.689,-0.0,0.00076,0.00015,4,3,6
35.016,2730123.708,0.00061,0.00015,0.00015,4,3,6
35.039,2730123.727,-0.0,0.00015,-0.00046,4,3,6
35.056,2730123.746,-0.0,-0.00046,-0.00046,4,3,6
35.075,2730123.765,-0.0,0.00015,-0.00046,4,3,6
35.096,2730123.784,-0.0,0.00015,-0.00046,4,3,6
35.116,2730123.803,-0.00061,0.00015,-0.00046,4,3,6
35.131,2730123.822,-0.0,-0.00046,0.00015,4,3,6
35.163,2730123.841,-0.0,0.00015,-0.00046,4,3,6
35.169,2730123.86,0.00061,0.00015,-0.00038,4,3,6
35.187,2730123.879,-0.00061,0.00015,0.00023,4,3,6
35.207,2730123.898,-0.0,0.00015,-0.00038,4,3,6
35.228,2730123.917,-0.00061,0.00015,0.00023,4,3,6
35.245,2730123.936,0.00061,-0.00046,0.00023,4,3,6
35.264,2730123.955,-0.00061,-0.00046,0.00023,4,3,6
35.281,2730123.974,0.0,0.00015,0.00023,4,3,6
35.301,2730123.993,-0.00061,0.00015,0.00023,4,3,6
35.32,2730124.012,-0.00061,-0.00046,0.00023,4,3,6
35.339,2730124.031,0.0,0.00015,-0.00038,4,3,6
35.358,2730124.05,0.0,0.00076,0.00023,4,3,6
35.377,2730124.069,0.00061,0.00076,0.00084,4,3,6
35.396,2730124.088,-0.00061,0.00015,0.00092,4,3,6
35.415,2730124.107,0.00061,0.00015,0.00092,4,3,6
35.434,2730124.126,-0.00061,-0.00046,0.00031,4,3,6
35.454,2730124.145,0.00061,0.00015,-0.00031,4,3,6
35.474,2730124.164,0.0,-0.00046,-0.00038,4,3,6
35.492,2730124.183,0.00069,0.00015,0.00023,4,3,6
35.51,2730124.202,8e-05,0.00015,0.00023,4,3,6
35.528,2730124.221,0.00069,0.00015,0.00084,4,3,6
35.548,2730124.24,-0.00053,0.00015,0.00023,4,3,6
35.567,2730124.259,8e-05,0.00015,0.00023,4,3,6
35.587,2730124.279,0.00069,0.00015,0.00023,4,3,6
35.607,2730124.298,8e-05,0.00015,0.00023,4,3,6
35.629,2730124.317,0.00069,0.00015,0.00023,4,3,6
35.645,2730124.336,0.00069,0.00015,-0.00038,4,3,6
35.663,2730124.355,0.00069,0.00015,-0.00038,4,3,6
35.681,2730124.374,8e-05,0.00015,0.00023,4,3,6
35.702,2730124.393,0.00069,-0.00046,0.00076,4,3,6
35.722,2730124.412,0.00069,-0.00053,0.00015,4,3,6
35.739,2730124.431,0.00069,8e-05,0.00015,4,3,6
35.759,2730124.45,-0.00053,8e-05,-0.00046,4,3,6
35.777,2730124.469,-0.00061,8e-05,-0.00046,4,3,6
35.796,2730124.488,0.0,-0.00053,-0.00046,4,3,6
35.814,2730124.507,0.0,8e-05,8e-05,4,3,6
35.835,2730124.526,0.0,-0.00053,8e-05,4,3,6
35.853,2730124.545,-0.0,8e-05,-0.00053,4,3,6
35.876,2730124.564,0.00061,8e-05,-0.00053,4,3,6
35.895,2730124.583,-0.0,8e-05,-0.00053,4,3,6
35.909,2730124.602,0.00053,8e-05,8e-05,4,3,6
35.928,2730124.621,-8e-05,8e-05,8e-05,4,3,6
35.948,2730124.64,0.00053,8e-05,8e-05,4,3,6
35.966,2730124.659,-8e-05,8e-05,8e-05,4,3,6
35.988,2730124.678,0.00115,8e-05,0.00069,4,3,6
36.005,2730124.697,-8e-05,-0.00053,0.00069,4,3,6
36.025,2730124.716,0.00053,8e-05,8e-05,4,3,6
36.043,2730124.735,-0.00015,-0.00053,8e-05,4,3,6
36.062,2730124.754,0.00046,8e-05,0.00069,4,3,6
36.081,2730124.773,-0.00015,-0.00053,0.00069,4,3,6
36.105,2730124.792,0.00046,8e-05,-0.00053,4,3,6
36.119,2730124.811,-0.00015,8e-05,-0.00053,4,3,6
36.138,2730124.83,-0.00015,-0.00053,8e-05,4,3,6
36.157,2730124.849,0.00046,8e-05,0.00069,4,3,6
36.176,2730124.868,0.00038,8e-05,0.00069,4,3,6
36.195,2730124.887,0.00038,0.00015,8e-05,4,3,6
36.214,2730124.906,-0.00145,-0.00046,8e-05,4,3,6
36.233,2730124.925,-0.00023,0.00015,8e-05,4,3,6
36.252,2730124.944,-0.00084,0.00015,-0.00053,4,3,6
36.271,2730124.963,0.00038,0.00015,8e-05,4,3,6
36.29,2730124.982,-0.00084,0.00015,-0.00053,4,3,6
36.308,2730125.001,-0.00023,-0.00046,-0.00053,4,3,6
36.327,2730125.02,-0.00084,0.00015,8e-05,4,3,6
36.348,2730125.039,-0.00023,0.00076,8e-05,4,3,6
36.367,2730125.058,-0.00084,0.00015,-0.00053,4,3,6
36.387,2730125.077,-0.00023,0.00015,-0.00053,4,3,6
36.405,2730125.096,-0.00023,0.00076,-0.00053,4,3,6
36.424,2730125.115,-0.00084,0.00076,8e-05,4,3,6
36.444,2730125.134,0.00038,0.00015,-0.00053,4,3,6
36.462,2730125.153,-0.00023,0.00015,8e-05,4,3,6
36.483,2730125.172,0.00038,0.00076,8e-05,4,3,6
36.499,2730125.192,-0.00084,0.00015,8e-05,4,3,6
36.522,2730125.211,0.00038,0.00015,8e-05,4,3,6
36.538,2730125.23,-0.00076,0.00076,8e-05,4,3,6
36.559,2730125.249,0.00046,0.00015,8e-05,4,3,6
36.576,2730125.268,-0.00076,0.00015,8e-05,4,3,6
36.595,2730125.287,-0.00015,0.00015,8e-05,4,3,6
36.615,2730125.306,-0.00015,-0.00053,-0.00053,4,3,6
36.633,2730125.325,-0.00015,8e-05,8e-05,4,3,6
36.651,2730125.344,-0.00076,8e-05,-0.00053,4,3,6
36.67,2730125.363,-8e-05,8e-05,-0.00053,4,3,6
36.69,2730125.382,0.00053,8e-05,8e-05,4,3,6
36.708,2730125.401,-0.00069,8e-05,0.00069,4,3,6
36.728,2730125.42,0.00053,8e-05,0.00069,4,3,6
36.747,2730125.439,-8e-05,-0.00053,8e-05,4,3,6
36.766,2730125.458,-0.0,0.0,8e-05,4,3,6
36.785,2730125.477,-0.00061,0.0,0.00015,4,3,6
36.805,2730125.496,-0.0,0.0,0.00076,4,3,6
36.823,2730125.515,-0.00061,0.0,0.00015,4,3,6
36.844,2730125.534,0.0,-0.0,0.00015,4,3,6
36.861,2730125.553,-0.00061,-0.0,0.00015,4,3,6
36.884,2730125.572,0.00061,-0.0,-0.00046,4,3,6
36.9,2730125.591,8e-05,-0.0,0.00015,4,3,6
36.919,2730125.61,8e-05,-0.0,-0.00046,4,3,6
36.937,2730125.629,8e-05,-0.0,0.00015,4,3,6
36.959,2730125.648,8e-05,-0.00069,0.00015,4,3,6
36.976,2730125.667,8e-05,-8e-05,-0.00046,4,3,6
36.997,2730125.686,8e-05,-0.00069,-0.00046,4,3,6
37.013,2730125.705,0.00069,-0.00069,0.00015,4,3,6
37.034,2730125.724,-0.00053,-8e-05,0.00015,4,3,6
37.051,2730125.743,0.00069,-8e-05,0.00015,4,3,6
37.071,2730125.762,-0.00053,-0.0,0.00015,4,3,6
37.089,2730125.781,8e-05,-0.0,8e-05,4,3,6
37.114,2730125.8,-0.00053,-0.00061,8e-05,4,3,6
37.127,2730125.819,8e-05,-0.0,-0.00053,4,3,6
37.147,2730125.838,-0.00053,-0.0,-0.00053,4,3,6
37.173,2730125.857,-0.00053,0.00061,8e-05,4,3,6
37.183,2730125.876,0.00069,0.0,8e-05,4,3,6
37.203,2730125.895,8e-05,-0.00061,-0.00053,4,3,6
37.223,2730125.914,8e-05,0.0,8e-05,4,3,6
37.242,2730125.933,-0.00053,0.0,8e-05,4,3,6
37.26,2730125.952,0.00069,8e-05,8e-05,4,3,6
37.279,2730125.971,-0.00053,0.00069,8e-05,4,3,6
37.297,2730125.99,0.00069,8e-05,8e-05,4,3,6
37.319,2730126.009,-0.00053,-0.00053,-0.00053,4,3,6
37.337,2730126.028,0.00069,8e-05,8e-05,4,3,6
37.358,2730126.047,-0.00053,-0.00053,8e-05,4,3,6
37.378,2730126.066,0.00069,8e-05,0.00069,4,3,6
37.394,2730126.086,-0.00053,-0.00053,8e-05,4,3,6
37.416,2730126.105,8e-05,8e-05,8e-05,4,3,6
37.437,2730126.124,8e-05,8e-05,8e-05,4,3,6
37.45,2730126.143,8e-05,-0.00053,-0.00046,4,3,6
37.47,2730126.162,8e-05,8e-05,0.00015,4,3,6
37.49,2730126.181,8e-05,8e-05,0.00015,4,3,6
37.507,2730126.2,0.00069,8e-05,-0.00046,4,3,6
37.527,2730126.219,-0.00053,8e-05,0.00015,4,3,6
37.55,2730126.238,0.00069,-0.00053,-0.00046,4,3,6
37.567,2730126.257,-0.00053,8e-05,-0.00046,4,3,6
37.584,2730126.276,8e-05,0.00015,-0.00046,4,3,6
37.604,2730126.295,-0.00053,-0.00046,-0.00046,4,3,6
37.627,2730126.314,0.00069,0.00015,-0.00046,4,3,6
37.641,2730126.333,-0.00053,-0.00046,0.00015,4,3,6
37.661,2730126.352,8e-05,0.00015,0.00015,4,3,6
37.681,2730126.371,-0.00115,0.00015,-0.00046,4,3,6
37.698,2730126.39,0.00069,0.00015,-0.00046,4,3,6
37.718,2730126.409,8e-05,0.00015,-0.00046,4,3,6
37.738,2730126.428,0.00069,-0.00046,0.00015,4,3,6
37.76,2730126.447,-0.00053,0.00015,0.00015,4,3,6
37.779,2730126.466,-0.00053,0.00015,0.00015,4,3,6
37.795,2730126.485,0.00069,0.00076,0.00015,4,3,6
37.811,2730126.504,-0.00053,0.00015,-0.00046,4,3,6
37.835,2730126.523,0.00069,0.00015,0.00015,4,3,6
37.851,2730126.542,-0.00053,0.00015,0.00015,4,3,6
37.87,2730126.561,0.00069,0.00076,0.00015,4,3,6
37.889,2730126.58,0.00069,-0.00107,0.00015,4,3,6
37.907,2730126.599,0.00069,0.00076,-0.00038,4,3,6
37.932,2730126.618,8e-05,-0.00046,0.00023,4,3,6
37.951,2730126.637,0.00069,0.00015,0.00023,4,3,6
37.967,2730126.656,8e-05,0.00015,0.00023,4,3,6
37.986,2730126.675,8e-05,-0.00046,0.00023,4,3,6
38.004,2730126.694,8e-05,-0.00046,0.00023,4,3,6
38.022,2730126.713,8e-05,-0.00046,0.00023,4,3,6
38.041,2730126.732,8e-05,0.00015,-0.00038,4,3,6
38.062,2730126.751,-0.00053,-0.00046,-0.00038,4,3,6
38.08,2730126.77,8e-05,0.00015,0.00023,4,3,6
38.099,2730126.789,0.0,0.00015,0.00084,4,3,6
38.118,2730126.808,0.00061,0.00015,0.00084,4,3,6
38.137,2730126.827,0.0,0.00015,0.00084,4,3,6
38.156,2730126.846,0.0,0.00015,0.00023,4,3,6
38.174,2730126.865,0.0,-0.00046,0.00023,4,3,6
38.193,2730126.884,0.0,0.00015,0.00084,4,3,6
38.212,2730126.903,0.0,0.00015,0.00023,4,3,6
38.232,2730126.922,0.0,0.00076,0.00023,4,3,6
38.25,2730126.941,-0.0,0.00015,0.00023,4,3,6
38.271,2730126.96,-0.00061,0.00015,0.00023,4,3,6
38.289,2730126.979,-0.0,0.00015,0.00023,4,3,6
38.308,2730126.999,-0.00122,-0.00046,0.00015,4,3,6
38.332,2730127.018,-0.0,0.00015,0.00015,4,3,6
38.347,2730127.037,-0.00061,-0.00046,0.00015,4,3,6
38.368,2730127.056,-0.00061,-0.00046,0.00015,4,3,6
38.385,2730127.075,-0.00061,0.00015,0.00015,4,3,6
38.402,2730127.094,-0.00061,0.00015,0.00015,4,3,6
38.422,2730127.113,-0.00061,-0.00046,8e-05,4,3,6
38.441,2730127.132,0.00061,-0.00046,8e-05,4,3,6
38.46,2730127.151,-0.00061,-0.00107,8e-05,4,3,6
38.478,2730127.17,0.00061,-0.00046,8e-05,4,3,6
38.496,2730127.189,0.00061,0.00015,8e-05,4,3,6
38.516,2730127.208,-0.0,-0.00046,8e-05,4,3,6
38.535,2730127.227,0.0,-0.00046,0.0,4,3,6
38.554,2730127.246,0.00061,-0.00046,0.0,4,3,6
38.572,2730127.265,0.00122,0.00015,-0.00061,4,3,6
38.593,2730127.284,-0.00061,0.00015,-0.00061,4,3,6
38.611,2730127.303,8e-05,0.00015,-0.00061,4,3,6
38.63,2730127.322,8e-05,0.00015,-0.00061,4,3,6
38.65,2730127.341,0.00069,0.00015,-0.0,4,3,6
38.67,2730127.36,8e-05,-0.00038,-0.0,4,3,6
38.687,2730127.379,0.00069,0.00084,0.00061,4,3,6
38.709,2730127.398,-0.00115,0.00023,-0.0,4,3,6
38.73,2730127.417,0.00069,0.00023,-0.00061,4,3,6
38.746,2730127.436,8e-05,-0.00038,-0.0,4,3,6
38.768,2730127.455,8e-05,-0.00038,0.00061,4,3,6
38.784,2730127.474,-0.00053,0.00084,-0.0,4,3,6
38.802,2730127.493,-0.00053,0.00023,-0.00061,4,3,6
38.821,2730127.512,8e-05,0.00023,-0.00061,4,3,6
38.841,2730127.531,8e-05,-0.00038,-0.0,4,3,6
38.864,2730127.55,8e-05,-0.00038,-0.00061,4,3,6
38.882,2730127.569,-0.00053,-0.00038,-0.00061,4,3,6
38.9,2730127.588,0.00069,0.00023,-0.00061,4,3,6
38.915,2730127.607,8e-05,-0.00038,-0.00061,4,3,6
38.934,2730127.626,0.00069,0.00023,-0.00061,4,3,6
38.957,2730127.645,8e-05,0.00023,8e-05,4,3,6
38.977,2730127.664,0.00069,0.00023,8e-05,4,3,6
38.995,2730127.683,8e-05,0.00023,0.00069,4,3,6
39.01,2730127.702,0.00069,0.00023,8e-05,4,3,6
39.03,2730127.721,8e-05,0.00023,-0.00053,4,3,6
39.048,2730127.74,0.0,0.00023,-0.00053,4,3,6
39.069,2730127.759,0.0,-0.00038,-0.00053,4,3,6
39.087,2730127.778,-0.00061,0.00023,-0.00046,4,3,6
39.115,2730127.797,0.00061,0.00023,0.00015,4,3,6
39.125,2730127.816,-0.0,0.00023,0.00015,4,3,6
39.148,2730127.835,0.00061,0.00023,0.00015,4,3,6
39.168,2730127.854,-0.00061,0.00023,-0.00046,4,3,6
39.182,2730127.873,0.00061,-0.00038,0.00076,4,3,6
39.201,2730127.893,-0.00122,0.00023,0.00015,4,3,6
39.222,2730127.912,-0.0,-0.00038,-0.00038,4,3,6
39.239,2730127.931,-0.00061,-0.00038,0.00023,4,3,6
39.259,2730127.95,-0.0,0.00023,-0.00038,4,3,6
39.279,2730127.969,-0.0,-0.00038,0.00023,4,3,6
39.299,2730127.988,-0.0,0.00015,0.00023,4,3,6
39.316,2730128.007,0.00122,0.00015,0.00023,4,3,6
39.334,2730128.026,-0.0,0.00015,0.00023,4,3,6
39.354,2730128.045,0.00061,0.00076,-0.00038,4,3,6
39.375,2730128.064,-0.0,0.00015,-0.00038,4,3,6
39.391,2730128.083,-8e-05,0.00015,-0.00038,4,3,6
39.409,2730128.102,-0.00069,0.00015,0.00084,4,3,6
39.428,2730128.121,0.00053,0.00015,0.00023,4,3,6
39.45,2730128.14,-0.00069,-0.00046,0.00084,4,3,6
39.466,2730128.159,-8e-05,-0.00046,0.00023,4,3,6
39.487,2730128.178,-0.00069,-0.00046,-0.00038,4,3,6
39.506,2730128.197,-8e-05,0.00015,0.00023,4,3,6
39.528,2730128.216,-0.00069,0.00015,-0.00038,4,3,6
39.543,2730128.235,-8e-05,0.00015,0.00023,4,3,6
39.564,2730128.254,-8e-05,0.00015,0.00023,4,3,6
39.582,2730128.273,-8e-05,-0.00046,0.00023,4,3,6
39.602,2730128.292,-8e-05,0.00015,-0.00038,4,3,6
39.623,2730128.311,-8e-05,0.00015,0.00023,4,3,6
39.641,2730128.33,0.00061,-0.00046,0.00023,4,3,6
39.658,2730128.349,0.00061,0.00015,0.00023,4,3,6
39.677,2730128.368,0.00061,0.00076,0.00023,4,3,6
39.699,2730128.387,-0.0,-0.00046,0.00023,4,3,6
39.716,2730128.406,0.00122,0.00015,-0.00038,4,3,6
39.737,2730128.425,-0.00061,-0.00046,0.00015,4,3,6
39.756,2730128.444,-0.0,-0.00046,0.00015,4,3,6
39.775,2730128.463,-0.00061,0.00015,0.00015,4,3,6
39.791,2730128.482,-0.0,-0.00046,0.00076,4,3,6
39.808,2730128.501,-0.00061,-0.00046,0.00015,4,3,6
39.83,2730128.52,-0.0,-0.00046,0.00015,4,3,6
39.849,2730128.539,-0.0,-0.00046,0.00076,4,3,6
39.867,2730128.558,-0.0,0.00015,-0.00046,4,3,6
39.887,2730128.577,-0.00061,0.00015,-0.00046,4,3,6
39.905,2730128.596,-0.0,0.00015,-0.00046,4,3,6
39.927,2730128.615,-0.0,0.00015,0.00015,4,3,6
39.943,2730128.634,-0.00122,0.00076,0.00015,4,3,6
39.961,2730128.653,0.00061,0.00015,0.00015,4,3,6
39.982,2730128.672,-0.00061,-0.00046,0.00015,4,3,6
39.999,2730128.691,0.00061,0.00015,8e-05,4,3,6
40.019,2730128.71,-0.0,-0.00046,0.00069,4,3,6
40.039,2730128.729,0.00061,0.00015,8e-05,4,3,6
40.058,2730128.748,-0.00061,0.00023,8e-05,4,3,6
40.075,2730128.767,0.0,0.00084,8e-05,4,3,6
40.096,2730128.786,0.0,0.00023,8e-05,4,3,6
40.113,2730128.806,0.00061,-0.00038,8e-05,4,3,6
40.134,2730128.825,0.00122,0.00023,8e-05,4,3,6
40.152,2730128.844,0.0,0.00023,8e-05,4,3,6
40.172,2730128.863,0.0,0.00023,8e-05,4,3,6
40.189,2730128.882,-0.00061,0.00023,8e-05,4,3,6
40.208,2730128.901,0.0,0.00023,0.00069,4,3,6
40.23,2730128.92,-0.00061,0.00023,0.00069,4,3,6
40.252,2730128.939,0.00061,0.00023,8e-05,4,3,6
40.27,2730128.958,-0.00061,-0.00038,8e-05,4,3,6
40.285,2730128.977,0.00061,0.00023,8e-05,4,3,6
40.305,2730128.996,-0.00061,0.00023,8e-05,4,3,6
40.329,2730129.015,0.0,0.00023,8e-05,4,3,6
40.344,2730129.034,-0.00061,-0.00046,0.00061,4,3,6
40.366,2730129.053,0.00061,0.00015,0.0,4,3,6
40.386,2730129.072,0.0,-0.00046,0.00061,4,3,6
40.399,2730129.091,0.00061,0.00015,0.0,4,3,6
40.419,2730129.11,0.00061,0.00015,0.0,4,3,6
40.438,2730129.129,-0.00061,0.00076,0.0,4,3,6
40.458,2730129.148,0.0,0.00015,-0.0,4,3,6
40.477,2730129.167,0.0,0.00076,-0.0,4,3,6
40.495,2730129.186,0.00061,0.00076,-0.0,4,3,6
40.513,2730129.205,-0.00061,0.00015,-0.0,4,3,6
40.533,2730129.224,0.0,0.00076,-0.00061,4,3,6
40.552,2730129.243,-0.00061,0.00015,-0.00069,4,3,6
40.572,2730129.262,0.00061,8e-05,-8e-05,4,3,6
40.59,2730129.281,-0.0,8e-05,-8e-05,4,3,6
40.608,2730129.3,-0.0,8e-05,-8e-05,4,3,6
40.634,2730129.319,-0.00061,8e-05,-8e-05,4,3,6
40.651,2730129.338,0.00061,-0.00053,0.00053,4,3,6
40.666,2730129.357,0.00061,-0.00053,-8e-05,4,3,6
40.685,2730129.376,-0.0,-0.00053,-0.00069,4,3,6
40.705,2730129.395,-0.0,8e-05,-8e-05,4,3,6
40.724,2730129.414,-0.00061,-0.00053,-8e-05,4,3,6
40.745,2730129.433,0.00122,8e-05,0.00053,4,3,6
40.764,2730129.452,0.00061,-0.00115,-8e-05,4,3,6
40.783,2730129.471,-0.0,0.0,-8e-05,4,3,6
40.801,2730129.49,-0.00122,0.0,-8e-05,4,3,6
40.819,2730129.509,0.00061,0.00061,0.00053,4,3,6
40.837,2730129.528,-0.00061,-0.00061,-8e-05,4,3,6
40.86,2730129.547,-0.0,0.0,0.00053,4,3,6
40.875,2730129.566,-0.00122,0.0,-8e-05,4,3,6
40.895,2730129.585,0.00061,0.0,-8e-05,4,3,6
40.916,2730129.604,-0.0,-0.00061,-0.00069,4,3,6
40.933,2730129.623,-0.0,0.0,-0.00069,4,3,6
40.951,2730129.642,0.00061,0.0,-8e-05,4,3,6
40.971,2730129.661,-0.00061,0.00061,-8e-05,4,3,6
40.989,2730129.68,-0.0,0.00069,-8e-05,4,3,6
41.006,2730129.7,-0.0,8e-05,-8e-05,4,3,6
41.028,2730129.719,0.00061,0.00069,-0.0,4,3,6
41.047,2730129.738,-0.00061,8e-05,0.00061,4,3,6
41.066,2730129.757,-0.0,8e-05,0.00061,4,3,6
41.084,2730129.776,-0.0,8e-05,-0.0,4,3,6
41.105,2730129.795,0.00061,8e-05,-0.0,4,3,6
41.122,2730129.814,-0.0,8e-05,-0.0,4,3,6
41.15,2730129.833,-0.0,-0.00053,-0.0,4,3,6
41.175,2730129.852,-0.00061,8e-05,-0.0,4,3,6
41.183,2730129.871,0.00122,8e-05,0.00061,4,3,6
41.198,2730129.89,-0.0,0.00069,0.00061,4,3,6
41.217,2730129.909,-0.00061,0.00069,-0.0,4,3,6
41.237,2730129.928,0.00061,8e-05,-0.0,4,3,6
41.255,2730129.947,-0.00061,8e-05,-0.0,4,3,6
41.279,2730129.966,0.00061,8e-05,-0.0,4,3,6
41.293,2730129.985,-0.00061,-0.00053,-0.0,4,3,6
41.312,2730130.004,-0.0,-0.00053,-0.00069,4,3,6
41.33,2730130.023,-0.00061,8e-05,-8e-05,4,3,6
41.352,2730130.042,0.00061,8e-05,-0.00069,4,3,6
41.37,2730130.061,-0.0,8e-05,-0.00069,4,3,6
41.388,2730130.08,0.00061,8e-05,-0.00069,4,3,6
41.407,2730130.099,-0.00061,-0.00115,-8e-05,4,3,6
41.428,2730130.118,-0.0,-0.00061,-8e-05,4,3,6
41.452,2730130.137,-0.00061,0.0,0.00053,4,3,6
41.469,2730130.156,-0.00061,0.0,-8e-05,4,3,6
41.485,2730130.175,-0.0,0.0,-8e-05,4,3,6
41.504,2730130.194,-0.0,0.0,-8e-05,4,3,6
41.526,2730130.213,-0.0,-0.00061,-8e-05,4,3,6
41.546,2730130.232,0.00061,0.0,-8e-05,4,3,6
41.562,2730130.251,0.00061,0.0,-0.00069,4,3,6
41.579,2730130.27,-0.0,-0.00061,-0.00069,4,3,6
41.602,2730130.289,0.00061,-0.00061,-0.00061,4,3,6
41.618,2730130.308,-0.00061,-0.00061,-0.0,4,3,6
41.639,2730130.327,0.0,0.0,-0.0,4,3,6
41.66,2730130.346,-0.00061,-0.00061,-0.0,4,3,6
41.674,2730130.365,0.00061,0.00061,-0.00061,4,3,6
41.694,2730130.384,0.00061,0.00069,-0.0,4,3,6
41.715,2730130.403,0.00061,8e-05,-0.00061,4,3,6
41.731,2730130.422,-0.00061,-0.00053,0.0,4,3,6
41.75,2730130.441,0.0,8e-05,-0.00061,4,3,6
41.771,2730130.46,0.0,8e-05,0.0,4,3,6
41.788,2730130.479,-0.00061,8e-05,0.0,4,3,6
41.808,2730130.498,0.00061,-0.00053,8e-05,4,3,6
41.827,2730130.517,-0.00061,8e-05,8e-05,4,3,6
41.846,2730130.536,0.00061,0.00015,-0.00053,4,3,6
41.864,2730130.555,0.00061,0.00015,-0.00053,4,3,6
41.884,2730130.574,0.00122,-0.00046,-0.00053,4,3,6
41.904,2730130.593,-0.0,-0.00046,0.00069,4,3,6
41.922,2730130.613,-0.0,0.00015,-0.00046,4,3,6
41.941,2730130.632,-0.0,-0.00046,-0.00046,4,3,6
41.962,2730130.651,0.00122,-0.00107,0.00015,4,3,6
41.978,2730130.67,-0.0,0.00015,0.00015,4,3,6
41.998,2730130.689,-0.0,0.00015,-0.00046,4,3,6
42.017,2730130.708,0.00122,-0.00046,0.00015,4,3,6
42.039,2730130.727,-0.0,0.00015,-0.00046,4,3,6
42.059,2730130.746,-8e-05,-0.00046,-0.00046,4,3,6
42.075,2730130.765,-0.00069,0.00023,0.00015,4,3,6
42.098,2730130.784,0.00115,0.00023,0.00015,4,3,6
42.115,2730130.803,-0.00069,0.00023,0.00023,4,3,6
42.13,2730130.822,-8e-05,0.00023,0.00023,4,3,6
42.15,2730130.841,-0.00069,0.00023,0.00023,4,3,6
42.169,2730130.86,0.00115,0.00023,0.00023,4,3,6
42.187,2730130.879,-0.00069,0.00023,0.00023,4,3,6
42.208,2730130.898,-0.00015,0.00023,0.00023,4,3,6
42.228,2730130.917,-0.00076,0.00023,-0.00038,4,3,6
42.245,2730130.936,-0.00015,-0.00038,0.00084,4,3,6
42.267,2730130.955,-0.00076,0.00084,0.00023,4,3,6
42.285,2730130.974,-0.00015,0.00023,0.00023,4,3,6
42.301,2730130.993,-0.00015,0.00084,0.00023,4,3,6
42.321,2730131.012,-0.00076,0.00084,0.00023,4,3,6
42.341,2730131.031,-0.00015,0.00084,0.00023,4,3,6
42.362,2730131.05,-0.00015,0.00023,0.00023,4,3,6
42.382,2730131.069,-0.00015,0.00023,0.00023,4,3,6
42.396,2730131.088,-0.00076,-0.00099,0.00023,4,3,6
42.415,2730131.107,-0.00015,-0.00038,-0.00038,4,3,6
42.435,2730131.126,-0.00076,0.00023,-0.00038,4,3,6
42.457,2730131.145,-0.00015,0.00076,0.00023,4,3,6
42.473,2730131.164,-0.00076,0.00015,0.00023,4,3,6
42.492,2730131.183,0.00046,-0.00046,0.00023,4,3,6
42.509,2730131.202,-0.00015,-0.00046,0.00015,4,3,6
42.529,2730131.221,-0.00015,0.00015,0.00015,4,3,6
42.551,2730131.24,-0.00069,0.00137,0.00015,4,3,6
42.57,2730131.259,-0.00069,0.00015,-0.00046,4,3,6
42.588,2730131.278,0.00053,0.00015,-0.00107,4,3,6
42.608,2730131.297,-0.00069,0.00015,0.00015,4,3,6
42.631,2730131.316,0.00115,8e-05,0.00015,4,3,6
42.649,2730131.335,-0.00061,-0.00053,-0.00046,4,3,6
42.663,2730131.354,0.00061,8e-05,0.00015,4,3,6
42.682,2730131.373,-0.00061,8e-05,0.00015,4,3,6
42.701,2730131.392,0.0,8e-05,0.00015,4,3,6
42.725,2730131.411,-0.00061,-0.00053,0.00015,4,3,6
42.742,2730131.43,8e-05,8e-05,0.00076,4,3,6
42.759,2730131.449,-0.00053,8e-05,0.00076,4,3,6
42.778,2730131.468,8e-05,-0.00061,8e-05,4,3,6
42.8,2730131.487,0.00069,-0.00061,8e-05,4,3,6
42.815,2730131.507,-0.00053,0.00061,-0.00053,4,3,6
42.838,2730131.526,8e-05,0.0,-0.00053,4,3,6
42.857,2730131.545,8e-05,0.0,-0.00053,4,3,6
42.873,2730131.564,8e-05,0.0,8e-05,4,3,6
42.893,2730131.583,0.00015,-0.00061,8e-05,4,3,6
42.909,2730131.602,0.00015,0.0,8e-05,4,3,6
42.928,2730131.621,-0.00046,-0.00061,8e-05,4,3,6
42.952,2730131.64,0.00137,-0.00061,8e-05,4,3,6
42.969,2730131.659,-0.00046,-0.00061,-0.00046,4,3,6
42.989,2730131.678,0.00076,-0.00061,0.00015,4,3,6
43.007,2730131.697,0.00015,-0.00053,0.00015,4,3,6
43.029,2730131.716,0.00015,0.00069,0.00015,4,3,6
43.049,2730131.735,0.00015,-0.00053,0.00015,4,3,6
43.068,2730131.754,0.00015,8e-05,-0.00046,4,3,6
43.082,2730131.773,0.00076,-0.00053,-0.00046,4,3,6
43.103,2730131.792,0.00015,0.00069,-0.00046,4,3,6
43.119,2730131.811,8e-05,8e-05,0.00015,4,3,6
43.139,2730131.83,8e-05,8e-05,0.00076,4,3,6
43.165,2730131.849,0.00069,8e-05,-0.00046,4,3,6
43.177,2730131.868,-0.00053,8e-05,0.00015,4,3,6
43.194,2730131.887,8e-05,0.00015,0.00076,4,3,6
43.215,2730131.906,-0.00053,-0.00046,0.00076,4,3,6
43.234,2730131.925,8e-05,0.00015,0.00076,4,3,6
43.254,2730131.944,-0.00053,-0.00046,0.00015,4,3,6
43.275,2730131.963,8e-05,0.00015,0.00076,4,3,6
43.291,2730131.982,-0.00053,0.00015,0.00015,4,3,6
43.311,2730132.001,0.00069,0.00015,0.00015,4,3,6
43.328,2730132.02,0.0,-0.00046,0.00015,4,3,6
43.348,2730132.039,0.0,0.00015,0.00015,4,3,6
43.368,2730132.058,0.0,0.00015,-0.00046,4,3,6
43.385,2730132.077,-0.00061,0.00015,8e-05,4,3,6
43.406,2730132.096,0.0,0.00015,8e-05,4,3,6
43.425,2730132.115,-0.00061,-0.00046,8e-05,4,3,6
43.447,2730132.134,0.00061,0.00023,8e-05,4,3,6
43.467,2730132.153,-0.00061,0.00023,8e-05,4,3,6
43.486,2730132.172,0.0,0.00023,-0.00053,4,3,6
43.502,2730132.191,-0.00061,0.00023,8e-05,4,3,6
43.52,2730132.21,0.00061,0.00023,0.00069,4,3,6
43.538,2730132.229,-0.00061,0.00023,8e-05,4,3,6
43.558,2730132.248,0.0,0.00023,8e-05,4,3,6
43.575,2730132.267,-0.00061,-0.00046,8e-05,4,3,6
43.597,2730132.286,0.0,0.00015,8e-05,4,3,6
43.614,2730132.305,0.0,0.00015,8e-05,4,3,6
43.633,2730132.324,-0.00061,-0.00046,0.0,4,3,6
43.652,2730132.343,0.0,0.00015,0.0,4,3,6
43.673,2730132.362,-0.00053,-0.00046,0.0,4,3,6
43.69,2730132.381,0.00069,0.00015,0.0,4,3,6
43.708,2730132.4,8e-05,0.00015,0.0,4,3,6
43.731,2730132.42,0.00069,0.00015,0.0,4,3,6
43.749,2730132.439,8e-05,0.00015,-0.0,4,3,6
43.767,2730132.458,0.00069,0.00015,-0.0,4,3,6
43.785,2730132.477,-0.00053,-0.00046,-0.0,4,3,6
43.805,2730132.496,0.00069,0.00015,0.00061,4,3,6
43.825,2730132.515,8e-05,0.00015,0.00122,4,3,6
43.845,2730132.534,8e-05,0.00015,-0.0,4,3,6
43.865,2730132.553,-0.00053,0.00015,-0.00061,4,3,6
43.881,2730132.572,-0.00053,0.00015,-0.00061,4,3,6
43.901,2730132.591,8e-05,-0.00046,-0.0,4,3,6
43.919,2730132.61,-0.00115,0.00015,-0.0,4,3,6
43.938,2730132.629,0.00069,0.00015,-0.00061,4,3,6
43.956,2730132.648,-0.00053,0.00076,-0.0,4,3,6
43.976,2730132.667,8e-05,0.00015,-0.0,4,3,6
43.998,2730132.686,-0.00053,-0.00046,-0.0,4,3,6
44.014,2730132.705,0.00069,0.00015,-0.00061,4,3,6
44.034,2730132.724,-0.00053,-0.00046,-0.0,4,3,6
44.052,2730132.743,0.00069,0.00015,-0.0,4,3,6
44.071,2730132.762,8e-05,-0.00046,-0.0,4,3,6
44.09,2730132.781,0.00069,0.00015,-0.0,4,3,6
44.115,2730132.8,-0.00053,0.00015,-0.0,4,3,6
44.126,2730132.819,8e-05,0.00076,-0.0,4,3,6
44.148,2730132.838,8e-05,-0.00046,-0.0,4,3,6
44.166,2730132.857,-0.00053,-0.00046,-0.0,4,3,6
44.183,2730132.876,8e-05,0.00015,-0.0,4,3,6
44.204,2730132.895,-0.00053,0.00015,-0.0,4,3,6
44.227,2730132.914,8e-05,0.00015,-0.0,4,3,6
44.242,2730132.933,-0.00115,0.00015,-0.0,4,3,6
44.265,2730132.952,0.00069,0.00076,-0.0,4,3,6
44.284,2730132.971,8e-05,0.00015,-0.00061,4,3,6
44.302,2730132.99,0.0013,0.00076,-0.00061,4,3,6
44.318,2730133.009,-0.00053,-0.00046,0.0,4,3,6
44.337,2730133.028,0.00069,0.00015,0.0,4,3,6
44.36,2730133.047,8e-05,0.00015,0.0,4,3,6
44.379,2730133.066,8e-05,8e-05,0.0,4,3,6
44.394,2730133.085,-0.00053,0.00069,0.0,4,3,6
44.412,2730133.104,8e-05,8e-05,0.00061,4,3,6
44.431,2730133.123,8e-05,8e-05,-0.00061,4,3,6
44.451,2730133.142,8e-05,0.00069,8e-05,4,3,6
44.471,2730133.161,0.00069,8e-05,8e-05,4,3,6
44.49,2730133.18,8e-05,0.00069,-0.00053,4,3,6
44.506,2730133.199,8e-05,8e-05,8e-05,4,3,6
44.528,2730133.218,-0.00053,-0.00053,8e-05,4,3,6
44.549,2730133.237,0.00069,8e-05,8e-05,4,3,6
44.568,2730133.256,-0.00053,8e-05,8e-05,4,3,6
44.584,2730133.275,0.0013,8e-05,-0.00053,4,3,6
44.604,2730133.294,-0.00053,8e-05,0.00069,4,3,6
44.626,2730133.314,8e-05,8e-05,8e-05,4,3,6
44.644,2730133.333,-0.00053,8e-05,-0.00053,4,3,6
44.661,2730133.352,8e-05,0.0,8e-05,4,3,6
44.68,2730133.371,-0.00053,-0.00061,8e-05,4,3,6
44.702,2730133.39,-0.00053,-0.00061,-0.00053,4,3,6
44.717,2730133.409,-0.00053,0.0,-0.00053,4,3,6
44.74,2730133.428,-0.00053,-0.00061,-0.00053,4,3,6
44.756,2730133.447,8e-05,-0.0,-0.00053,4,3,6
44.775,2730133.466,-0.00053,-0.00061,-0.00053,4,3,6
44.797,2730133.485,0.00069,-0.0,-0.00053,4,3,6
44.811,2730133.504,-0.00053,-0.0,8e-05,4,3,6
44.831,2730133.523,0.00069,-0.0,-0.00053,4,3,6
44.851,2730133.542,8e-05,-0.00061,8e-05,4,3,6
44.869,2730133.561,0.00069,-0.0,8e-05,4,3,6
44.888,2730133.58,-0.00053,-0.0,8e-05,4,3,6
44.907,2730133.599,8e-05,-0.0,-0.00046,4,3,6
44.932,2730133.618,8e-05,-0.00061,0.00015,4,3,6
44.947,2730133.637,0.00069,-0.0,0.00015,4,3,6
44.965,2730133.656,8e-05,0.00061,-0.00046,4,3,6
44.985,2730133.675,8e-05,-0.00061,0.00015,4,3,6
45.003,2730133.694,0.00069,0.0,0.00015,4,3,6
45.025,2730133.713,8e-05,0.0,-0.00046,4,3,6
45.044,2730133.732,8e-05,0.0,-0.00107,4,3,6
45.065,2730133.751,-0.00053,8e-05,-0.00046,4,3,6
45.08,2730133.77,0.00069,-0.00053,-0.00046,4,3,6
45.1,2730133.789,-0.00115,8e-05,-0.00038,4,3,6
45.117,2730133.808,0.00069,8e-05,0.00023,4,3,6
45.135,2730133.827,-0.00053,-0.00053,0.00023,4,3,6
45.168,2730133.846,0.00069,8e-05,0.00023,4,3,6
45.174,2730133.865,8e-05,8e-05,0.00084,4,3,6
45.191,2730133.884,8e-05,-0.00053,0.00084,4,3,6
45.211,2730133.903,8e-05,8e-05,0.00023,4,3,6
45.23,2730133.922,8e-05,-0.00053,0.00084,4,3,6
45.249,2730133.941,0.00069,-0.00046,0.00031,4,3,6
45.273,2730133.96,8e-05,0.00015,0.00031,4,3,6
45.287,2730133.979,0.00069,0.00076,0.00031,4,3,6
45.311,2730133.998,-0.00115,0.00076,-0.00031,4,3,6
45.327,2730134.017,0.00069,0.00015,-0.00031,4,3,6
45.35,2730134.036,-0.00053,0.00015,-0.00031,4,3,6
45.364,2730134.055,8e-05,0.00015,-0.00031,4,3,6
45.384,2730134.074,-0.00053,0.00015,-0.00031,4,3,6
45.402,2730134.093,0.00061,0.00015,-0.00031,4,3,6
45.422,2730134.112,-0.00061,0.00015,0.00031,4,3,6
45.445,2730134.131,0.0,-0.00046,0.00023,4,3,6
45.463,2730134.15,0.0,-0.00046,0.00023,4,3,6
45.479,2730134.169,0.0,-0.00046,-0.00099,4,3,6
45.498,2730134.188,-0.00061,0.00015,-0.00038,4,3,6
45.517,2730134.207,0.0,0.00015,0.00023,4,3,6
45.537,2730134.227,0.0,0.00015,0.00023,4,3,6
45.556,2730134.246,0.0,0.00015,0.00023,4,3,6
45.576,2730134.265,0.00122,0.00015,-0.00038,4,3,6
45.594,2730134.284,-0.00061,-0.00046,-0.00038,4,3,6
45.612,2730134.303,0.00122,0.00015,-0.00038,4,3,6
45.631,2730134.322,-0.00061,0.00015,0.00023,4,3,6
45.65,2730134.341,0.00061,0.00015,0.00023,4,3,6
45.668,2730134.36,-0.00061,0.00015,0.00023,4,3,6
45.686,2730134.379,0.0,0.00015,0.00023,4,3,6
45.712,2730134.398,-0.00061,0.00015,0.00023,4,3,6
45.73,2730134.417,0.00061,0.00015,0.00023,4,3,6
45.748,2730134.436,0.0,-0.00046,0.00023,4,3,6
45.764,2730134.455,0.0,0.00015,0.00023,4,3,6
45.785,2730134.474,0.0,0.00015,0.00023,4,3,6
45.803,2730134.493,-0.00061,0.00015,0.00023,4,3,6
45.822,2730134.512,0.00061,0.00076,0.00023,4,3,6
45.841,2730134.531,-0.00061,0.00015,0.00023,4,3,6
45.862,2730134.55,0.00061,0.00015,-0.00038,4,3,6
45.882,2730134.569,0.0,-0.00053,-0.00038,4,3,6
45.9,2730134.588,0.0,0.00069,-0.00038,4,3,6
45.918,2730134.607,-0.00122,8e-05,-0.00038,4,3,6
45.934,2730134.626,0.00061,8e-05,-0.00038,4,3,6
45.957,2730134.645,0.00061,8e-05,0.00023,4,3,6
45.974,2730134.664,0.0,8e-05,0.00023,4,3,6
45.992,2730134.683,0.0,8e-05,-0.00038,4,3,6
46.009,2730134.702,0.0,8e-05,0.00023,4,3,6
46.029,2730134.721,0.0,8e-05,0.00023,4,3,6
46.048,2730134.74,0.0,8e-05,-0.00038,4,3,6
46.069,2730134.759,0.00061,8e-05,0.00023,4,3,6
46.088,2730134.778,0.0,8e-05,0.00023,4,3,6
46.114,2730134.797,0.00061,8e-05,0.00023,4,3,6
46.125,2730134.816,-0.00061,8e-05,0.00084,4,3,6
46.144,2730134.835,0.00061,8e-05,0.00084,4,3,6
46.163,2730134.854,-0.00061,8e-05,0.00023,4,3,6
46.181,2730134.873,-0.0,-0.00053,0.00023,4,3,6
46.201,2730134.892,-0.00061,-0.00053,0.00023,4,3,6
46.224,2730134.911,0.00061,8e-05,0.00023,4,3,6
46.24,2730134.93,-0.0,8e-05,0.00084,4,3,6
46.259,2730134.949,-0.0,8e-05,0.00023,4,3,6
46.278,2730134.968,-0.00061,0.0,0.00023,4,3,6
46.297,2730134.987,-0.0,0.0,0.00023,4,3,6
46.315,2730135.006,-0.0,-0.00061,0.00015,4,3,6
46.335,2730135.025,-0.00061,0.0,0.00015,4,3,6
46.357,2730135.044,-0.00061,-0.00061,-0.00046,4,3,6
46.372,2730135.063,-0.00061,0.0,0.00015,4,3,6
46.391,2730135.082,0.00061,0.0,0.00015,4,3,6
46.41,2730135.101,-0.0,-0.00061,0.00015,4,3,6
46.427,2730135.121,0.00061,0.0,-0.00046,4,3,6
46.451,2730135.14,-0.00061,-0.00061,0.00015,4,3,6
46.469,2730135.159,-0.00061,0.0,0.00015,4,3,6
46.486,2730135.178,-0.00122,0.0,0.00015,4,3,6
46.507,2730135.197,-0.00061,8e-05,8e-05,4,3,6
46.525,2730135.216,-0.0,8e-05,-0.00053,4,3,6
46.547,2730135.235,0.00061,-0.00053,8e-05,4,3,6
46.567,2730135.254,0.0,8e-05,8e-05,4,3,6
46.584,2730135.273,0.0,8e-05,8e-05,4,3,6
46.6,2730135.292,0.00061,8e-05,8e-05,4,3,6
46.621,2730135.311,-0.00061,8e-05,0.00069,4,3,6
46.639,2730135.33,0.0,0.00069,8e-05,4,3,6
46.66,2730135.349,-0.00115,0.00069,8e-05,4,3,6
46.678,2730135.368,0.00069,0.00069,8e-05,4,3,6
46.697,2730135.387,-0.00115,8e-05,0.0,4,3,6
46.718,2730135.406,0.00069,0.00069,-0.00061,4,3,6
46.734,2730135.425,-0.00053,0.00015,0.0,4,3,6
46.753,2730135.444,8e-05,0.00015,0.0,4,3,6
46.775,2730135.463,-0.00053,0.00015,-0.00061,4,3,6
46.792,2730135.482,-0.00053,0.00076,-0.00061,4,3,6
46.808,2730135.501,0.00015,-0.00107,0.0,4,3,6
46.827,2730135.52,0.00076,-0.00053,0.0,4,3,6
46.848,2730135.539,0.00076,-0.00053,0.0,4,3,6
46.869,2730135.558,0.00015,8e-05,0.0,4,3,6
46.886,2730135.577,0.00015,8e-05,0.0,4,3,6
46.906,2730135.596,0.00015,0.00069,0.0,4,3,6
46.928,2730135.615,0.00076,8e-05,8e-05,4,3,6
46.946,2730135.634,-0.00046,-0.00053,-0.00053,4,3,6
46.964,2730135.653,0.00137,-0.00053,-0.00053,4,3,6
46.982,2730135.672,0.00076,-0.00053,8e-05,4,3,6
47.001,2730135.691,0.00076,-0.00053,8e-05,4,3,6
47.02,2730135.71,0.00015,8e-05,8e-05,4,3,6
47.038,2730135.729,0.00015,8e-05,8e-05,4,3,6
47.058,2730135.748,0.00015,-0.00053,8e-05,4,3,6
47.076,2730135.767,0.00015,-0.00115,-0.00053,4,3,6
47.096,2730135.786,0.00015,8e-05,8e-05,4,3,6
47.114,2730135.805,0.00015,0.00069,8e-05,4,3,6
47.133,2730135.824,-0.00046,0.00069,8e-05,4,3,6
47.159,2730135.843,-0.00046,8e-05,8e-05,4,3,6
47.172,2730135.862,8e-05,8e-05,8e-05,4,3,6
47.19,2730135.881,-0.00053,-0.00053,8e-05,4,3,6
47.208,2730135.9,0.00069,8e-05,8e-05,4,3,6
47.228,2730135.919,-0.00053,8e-05,8e-05,4,3,6
47.249,2730135.938,0.00069,8e-05,8e-05,4,3,6
47.267,2730135.957,-0.00053,8e-05,8e-05,4,3,6
47.286,2730135.976,8e-05,0.00069,8e-05,4,3,6
47.308,2730135.995,-0.00122,0.00069,8e-05,4,3,6
47.324,2730136.014,0.00061,0.00069,0.00015,4,3,6
47.343,2730136.034,0.0,8e-05,0.00015,4,3,6
47.366,2730136.053,0.0,8e-05,-0.00046,4,3,6
47.384,2730136.072,0.0,-0.00053,0.00015,4,3,6
47.399,2730136.091,-0.0,8e-05,0.00015,4,3,6
47.42,2730136.11,0.00061,8e-05,8e-05,4,3,6
47.438,2730136.129,-0.00061,0.00015,8e-05,4,3,6
47.461,2730136.148,0.00061,0.00015,8e-05,4,3,6
47.476,2730136.167,-0.00061,0.00015,-0.00053,4,3,6
47.499,2730136.186,-0.0,0.00015,-0.00053,4,3,6
47.517,2730136.205,-0.0,8e-05,8e-05,4,3,6
47.532,2730136.224,0.00061,8e-05,8e-05,4,3,6
47.552,2730136.243,-0.0,-0.00053,0.00069,4,3,6
47.57,2730136.262,-0.0,8e-05,8e-05,4,3,6
47.589,2730136.281,-0.00061,8e-05,8e-05,4,3,6
47.611,2730136.3,-0.0,8e-05,8e-05,4,3,6
47.627,2730136.319,-0.00061,-0.00053,-0.00053,4,3,6
47.65,2730136.338,0.00061,8e-05,8e-05,4,3,6
47.669,2730136.357,0.0,8e-05,8e-05,4,3,6
47.684,2730136.376,0.0,8e-05,0.00069,4,3,6
47.708,2730136.395,0.0,-0.00053,8e-05,4,3,6
47.724,2730136.414,0.0,-0.00115,0.00069,4,3,6
47.742,2730136.433,0.00122,-0.00053,0.00069,4,3,6
47.761,2730136.452,0.0,-0.00061,8e-05,4,3,6
47.78,2730136.471,0.00061,-0.00061,8e-05,4,3,6
47.801,2730136.49,-0.00053,0.0,-0.00053,4,3,6
47.818,2730136.509,0.00069,0.0,-0.00053,4,3,6
47.837,2730136.528,-0.00115,-0.00061,-0.00053,4,3,6
47.859,2730136.547,0.0,0.0,8e-05,4,3,6
47.879,2730136.566,-0.00061,8e-05,8e-05,4,3,6
47.894,2730136.585,0.0,8e-05,8e-05,4,3,6
47.912,2730136.604,-0.00061,-0.00053,8e-05,4,3,6
47.932,2730136.623,0.0,0.00069,-0.00053,4,3,6
47.952,2730136.642,0.00061,8e-05,-0.00053,4,3,6
47.972,2730136.661,0.0,8e-05,8e-05,4,3,6
47.988,2730136.68,0.0,-0.00053,-0.00053,4,3,6
48.01,2730136.699,0.00061,-0.00115,8e-05,4,3,6
48.031,2730136.718,0.0,0.00015,8e-05,4,3,6
48.048,2730136.737,-0.00061,0.00015,8e-05,4,3,6
48.068,2730136.756,0.00061,-0.00046,8e-05,4,3,6
48.082,2730136.775,-0.00061,0.00015,0.00069,4,3,6
48.103,2730136.794,0.0,-0.00046,0.00069,4,3,6
48.122,2730136.813,-0.00061,0.00015,8e-05,4,3,6
48.141,2730136.832,0.0,0.00015,8e-05,4,3,6
48.161,2730136.851,0.0,-0.00038,8e-05,4,3,6
48.18,2730136.87,0.0,-0.00038,8e-05,4,3,6
48.198,2730136.889,-0.00061,0.00023,8e-05,4,3,6
48.218,2730136.908,-0.00061,-0.00038,8e-05,4,3,6
48.236,2730136.928,-0.00061,0.00023,-0.00053,4,3,6
48.259,2730136.947,0.0,0.00023,8e-05,4,3,6
48.276,2730136.966,0.00122,0.00084,-0.00053,4,3,6
48.292,2730136.985,-0.00061,0.00023,-0.00053,4,3,6
48.312,2730137.004,0.0,0.00145,8e-05,4,3,6
48.331,2730137.023,0.0,0.00023,8e-05,4,3,6
48.351,2730137.042,0.0,-0.00038,8e-05,4,3,6
48.37,2730137.061,-0.00122,0.00084,-0.00053,4,3,6
48.388,2730137.08,8e-05,0.00023,-0.00053,4,3,6
48.407,2730137.099,8e-05,0.00023,-0.00053,4,3,6
48.428,2730137.118,0.00069,0.00023,8e-05,4,3,6
48.449,2730137.137,-0.00053,-0.00099,8e-05,4,3,6
48.466,2730137.156,8e-05,-0.00038,8e-05,4,3,6
