AppTimestamp(s),SensorTimestamp(s),Gyr_X,Gyr_Y,Gyr_Z,Label,Latitude,Longitude
0.076,2732350.426,0.24006,0.02703,-0.00557,6,3,0.6
0.077,2732350.445,0.1014,0.00504,-0.00557,6,3,0.6
0.077,2732350.464,-0.05925,-0.00779,-0.00374,6,3,0.6
0.078,2732350.483,-0.14783,-0.01451,-0.00252,6,3,0.6
0.092,2732350.502,-0.12828,-0.01329,-0.00252,6,3,0.6
0.126,2732350.521,-0.04642,-0.00412,-0.00252,6,3,0.6
0.126,2732350.54,0.03848,0.00321,-0.00374,6,3,0.6
0.143,2732350.559,0.08491,0.00137,-0.00618,6,3,0.6
0.159,2732350.578,0.08063,0.0087,-0.00557,6,3,0.6
0.181,2732350.597,0.03482,0.00015,-0.00435,6,3,0.6
0.2,2732350.616,-0.01833,-0.00351,-0.00374,6,3,0.6
0.218,2732350.635,-0.05375,-0.00473,-0.00374,6,3,0.6
0.238,2732350.655,-0.05192,-0.00962,-0.00496,6,3,0.6
0.254,2732350.674,-0.00794,-0.0029,-0.0068,6,3,0.6
0.276,2732350.693,0.04581,0.00687,-0.00802,6,3,0.6
0.295,2732350.712,0.06292,0.00932,-0.00863,6,3,0.6
0.312,2732350.731,0.03604,0.00443,-0.00802,6,3,0.6
0.332,2732350.75,-0.01466,0.00015,-0.00741,6,3,0.6
0.35,2732350.769,-0.0562,-0.00473,-0.00557,6,3,0.6
0.37,2732350.788,-0.07697,-0.00107,-0.00374,6,3,0.6
0.389,2732350.807,-0.07758,-0.0029,-0.00313,6,3,0.6
0.409,2732350.826,-0.05864,-0.00046,-0.00252,6,3,0.6
0.427,2732350.845,-0.02688,0.00015,-0.00313,6,3,0.6
0.446,2732350.864,0.00733,0.00137,-0.00557,6,3,0.6
0.464,2732350.883,0.03054,0.00199,-0.0068,6,3,0.6
0.483,2732350.902,0.03909,0.00199,-0.00741,6,3,0.6
0.504,2732350.921,0.02871,0.00137,-0.00802,6,3,0.6
0.522,2732350.94,0.00855,0.00015,-0.00802,6,3,0.6
0.541,2732350.959,-0.01527,-0.00046,-0.00802,6,3,0.6
0.56,2732350.978,-0.02871,-0.00107,-0.00741,6,3,0.6
0.58,2732350.997,-0.02993,-0.00168,-0.00557,6,3,0.6
0.598,2732351.016,-0.01955,-0.00107,-0.00435,6,3,0.6
0.618,2732351.035,-0.00428,-0.00168,-0.00374,6,3,0.6
0.636,2732351.054,0.01283,-0.00046,-0.00313,6,3,0.6
0.654,2732351.073,0.02199,0.00076,-0.00252,6,3,0.6
0.675,2732351.092,0.02199,0.00137,-0.00252,6,3,0.6
0.695,2732351.111,0.01283,0.00076,-0.00313,6,3,0.6
0.713,2732351.13,-0.00244,-0.00046,-0.00252,6,3,0.6
0.732,2732351.149,-0.01527,-0.00168,-0.00252,6,3,0.6
0.751,2732351.168,-0.02138,-0.0029,-0.00252,6,3,0.6
0.768,2732351.187,-0.0171,-0.0029,-0.00252,6,3,0.6
0.788,2732351.206,-0.00916,-0.00229,-0.0013,6,3,0.6
0.808,2732351.225,0.00428,-0.00229,-8e-05,6,3,0.6
0.828,2732351.244,0.011,-0.00351,0.00176,6,3,0.6
0.845,2732351.263,0.01405,-0.00412,0.00237,6,3,0.6
0.864,2732351.282,0.00733,-0.00473,0.00298,6,3,0.6
0.882,2732351.301,0.00061,-0.00473,0.00237,6,3,0.6
0.906,2732351.32,-0.00794,-0.00412,0.00237,6,3,0.6
0.922,2732351.339,-0.01161,-0.00351,0.00176,6,3,0.6
0.941,2732351.358,-0.01222,-0.00412,0.00176,6,3,0.6
0.96,2732351.377,-0.00916,-0.00351,0.00176,6,3,0.6
0.98,2732351.396,-0.00611,-0.00412,0.00176,6,3,0.6
1.001,2732351.415,-0.00367,-0.0029,0.00298,6,3,0.6
1.02,2732351.434,0.00061,-0.00351,0.00359,6,3,0.6
1.04,2732351.453,0.00122,-0.0029,0.00481,6,3,0.6
1.053,2732351.472,0.00244,-0.00351,0.00603,6,3,0.6
1.077,2732351.491,0.00061,-0.0029,0.00603,6,3,0.6
1.093,2732351.51,-0.00061,-0.00229,0.00481,6,3,0.6
1.112,2732351.529,-0.00489,-0.00168,0.00298,6,3,0.6
1.132,2732351.548,-0.00489,-0.00046,0.00115,6,3,0.6
1.15,2732351.568,-0.00428,-0.00046,-8e-05,6,3,0.6
1.169,2732351.587,-0.00183,0.00015,-0.0013,6,3,0.6
1.187,2732351.606,-0.00061,0.00015,-0.00252,6,3,0.6
1.206,2732351.625,0.00122,0.00015,-0.00252,6,3,0.6
1.225,2732351.644,0.00061,0.00015,-0.0013,6,3,0.6
1.244,2732351.663,0.0,-0.00046,0.00053,6,3,0.6
1.263,2732351.682,-0.00183,-0.00046,0.00053,6,3,0.6
1.281,2732351.701,-0.00305,-0.00046,0.00053,6,3,0.6
1.301,2732351.72,-0.00305,-0.00046,0.00053,6,3,0.6
1.324,2732351.739,-0.00244,-0.00046,0.00053,6,3,0.6
1.341,2732351.758,-0.00061,-0.00046,-8e-05,6,3,0.6
1.359,2732351.777,-0.00061,0.00015,-0.00069,6,3,0.6
1.378,2732351.796,0.00061,0.00015,-0.0013,6,3,0.6
1.397,2732351.815,-0.00061,-0.00046,-0.00069,6,3,0.6
1.417,2732351.834,0.00061,-0.00046,-8e-05,6,3,0.6
1.438,2732351.853,-0.00122,-0.00046,-8e-05,6,3,0.6
1.453,2732351.872,-0.00122,0.00076,-8e-05,6,3,0.6
1.474,2732351.891,-0.00244,-0.00107,-8e-05,6,3,0.6
1.492,2732351.91,-0.00061,0.00015,-8e-05,6,3,0.6
1.518,2732351.929,-0.00122,-0.00107,-8e-05,6,3,0.6
1.53,2732351.948,0.0,-0.00046,-8e-05,6,3,0.6
1.55,2732351.967,0.00061,-0.00046,-0.00069,6,3,0.6
1.569,2732351.986,0.0,-0.00046,-0.00069,6,3,0.6
1.587,2732352.005,-0.00061,0.00015,-0.00069,6,3,0.6
1.607,2732352.024,-0.00183,-0.00046,-8e-05,6,3,0.6
1.625,2732352.043,-0.00183,0.00015,0.00053,6,3,0.6
1.645,2732352.062,-0.00183,0.00015,0.00053,6,3,0.6
1.663,2732352.081,-0.00061,0.00015,-8e-05,6,3,0.6
1.682,2732352.1,-0.00061,-0.00107,-0.00069,6,3,0.6
1.702,2732352.119,0.00061,-0.00046,-0.0013,6,3,0.6
1.724,2732352.138,-0.00061,-0.00046,-8e-05,6,3,0.6
1.74,2732352.157,0.00061,-0.00046,-8e-05,6,3,0.6
1.758,2732352.176,-0.00122,-0.00046,-8e-05,6,3,0.6
1.777,2732352.195,-0.00122,-0.00046,-8e-05,6,3,0.6
1.796,2732352.214,-0.00183,-0.00046,-8e-05,6,3,0.6
1.815,2732352.233,0.0,0.00015,-8e-05,6,3,0.6
1.838,2732352.252,-0.00122,-0.00046,-8e-05,6,3,0.6
1.854,2732352.271,-0.00061,-0.00046,-8e-05,6,3,0.6
1.872,2732352.29,-0.00061,-0.00046,-8e-05,6,3,0.6
1.895,2732352.309,0.0,0.00015,-8e-05,6,3,0.6
1.912,2732352.328,0.0,-0.00046,-8e-05,6,3,0.6
1.93,2732352.347,-0.00061,0.00015,0.00053,6,3,0.6
1.95,2732352.366,-0.00061,-0.00107,-8e-05,6,3,0.6
1.968,2732352.385,-0.00122,-0.00046,-8e-05,6,3,0.6
1.985,2732352.404,-0.00061,0.00015,0.00053,6,3,0.6
2.006,2732352.423,-0.00122,-0.00046,0.00053,6,3,0.6
2.025,2732352.442,0.0,0.00015,-8e-05,6,3,0.6
2.046,2732352.462,-0.00122,0.00015,-0.00069,6,3,0.6
2.1,2732352.481,0.0,0.00015,-0.00069,6,3,0.6
2.101,2732352.5,-0.00061,-0.00046,-0.00069,6,3,0.6
2.101,2732352.519,0.0,-0.00046,-8e-05,6,3,0.6
2.121,2732352.538,-0.00122,-0.00046,-0.00069,6,3,0.6
2.139,2732352.557,-0.00061,-0.00046,-8e-05,6,3,0.6
2.156,2732352.576,-0.00061,-0.00107,-8e-05,6,3,0.6
2.177,2732352.595,-0.00061,-0.00046,-8e-05,6,3,0.6
2.197,2732352.614,-0.00061,-0.00046,-8e-05,6,3,0.6
2.215,2732352.633,-0.00061,-0.00046,-8e-05,6,3,0.6
2.235,2732352.652,-0.00061,0.00015,-8e-05,6,3,0.6
2.254,2732352.671,-0.00122,0.00015,-8e-05,6,3,0.6
2.271,2732352.69,0.0,0.00015,-8e-05,6,3,0.6
2.291,2732352.709,-0.00122,0.00015,0.00053,6,3,0.6
2.31,2732352.728,0.0,0.00015,-0.00069,6,3,0.6
2.329,2732352.747,-0.00122,0.00015,-8e-05,6,3,0.6
2.349,2732352.766,0.0,0.00015,-8e-05,6,3,0.6
2.366,2732352.785,0.0,0.00015,-8e-05,6,3,0.6
2.385,2732352.804,0.00061,0.00015,-8e-05,6,3,0.6
2.405,2732352.823,-0.00061,-0.00046,-8e-05,6,3,0.6
2.424,2732352.842,0.0,-0.00046,0.00053,6,3,0.6
2.444,2732352.861,0.0,-0.00107,0.00053,6,3,0.6
2.462,2732352.88,-0.00061,-0.00046,-8e-05,6,3,0.6
2.48,2732352.899,-0.00122,-0.00046,-8e-05,6,3,0.6
2.502,2732352.918,-0.00122,-0.00046,-8e-05,6,3,0.6
2.521,2732352.937,0.0,-0.00046,0.00053,6,3,0.6
2.539,2732352.956,-0.00061,0.00015,-8e-05,6,3,0.6
2.557,2732352.975,-0.00061,-0.00046,-8e-05,6,3,0.6
2.578,2732352.994,-0.00122,0.00015,-8e-05,6,3,0.6
2.597,2732353.013,0.0,0.00015,-8e-05,6,3,0.6
2.616,2732353.032,-0.00061,-0.00046,-8e-05,6,3,0.6
2.635,2732353.051,0.0,-0.00046,-8e-05,6,3,0.6
2.653,2732353.07,-0.00122,-0.00046,-8e-05,6,3,0.6
2.672,2732353.089,-0.00061,-0.00046,-8e-05,6,3,0.6
2.691,2732353.108,-0.00061,-0.00046,-8e-05,6,3,0.6
2.71,2732353.127,-0.00061,0.00015,-0.00069,6,3,0.6
2.73,2732353.146,-0.00061,-0.00046,-8e-05,6,3,0.6
2.749,2732353.165,-0.00061,-0.00046,-8e-05,6,3,0.6
2.771,2732353.184,0.0,-0.00046,-8e-05,6,3,0.6
2.784,2732353.203,0.0,0.00015,-0.00069,6,3,0.6
2.804,2732353.222,0.0,-0.00046,-8e-05,6,3,0.6
2.825,2732353.241,0.0,0.00015,-8e-05,6,3,0.6
2.843,2732353.26,-0.00061,0.00015,-0.00069,6,3,0.6
2.862,2732353.279,0.0,0.00015,-8e-05,6,3,0.6
2.882,2732353.298,0.00061,0.00015,-8e-05,6,3,0.6
2.903,2732353.317,-0.00122,0.00015,-8e-05,6,3,0.6
2.922,2732353.336,0.0,0.00015,-8e-05,6,3,0.6
2.938,2732353.356,-0.00061,0.00015,-8e-05,6,3,0.6
2.955,2732353.375,0.00061,0.00015,-8e-05,6,3,0.6
2.978,2732353.394,-0.00122,0.00015,-8e-05,6,3,0.6
2.998,2732353.413,-0.00061,0.00015,-8e-05,6,3,0.6
3.016,2732353.432,-0.00122,0.00015,-0.00069,6,3,0.6
3.038,2732353.451,0.00046,0.00038,-0.00061,6,3,0.6
3.056,2732353.47,-0.00015,-0.00023,-0.00061,6,3,0.6
3.071,2732353.489,0.00046,-0.00023,-0.0,6,3,0.6
3.09,2732353.508,-0.00015,0.00038,0.00061,6,3,0.6
3.11,2732353.527,-0.00076,-0.00023,-0.0,6,3,0.6
3.128,2732353.546,0.00046,-0.00023,0.0,6,3,0.6
3.147,2732353.565,0.00046,-0.00023,0.0,6,3,0.6
3.164,2732353.584,0.00107,0.00092,-0.00061,6,3,0.6
3.185,2732353.603,-0.00076,0.00031,0.0,6,3,0.6
3.202,2732353.622,0.00107,-0.00031,8e-05,6,3,0.6
3.222,2732353.641,-0.00015,-0.00031,8e-05,6,3,0.6
3.242,2732353.66,0.00038,0.00031,8e-05,6,3,0.6
3.26,2732353.679,-0.00084,0.00031,8e-05,6,3,0.6
3.281,2732353.698,-0.00023,-0.00031,8e-05,6,3,0.6
3.301,2732353.717,-0.00023,-0.00092,8e-05,6,3,0.6
3.322,2732353.736,0.00038,-0.00031,8e-05,6,3,0.6
3.34,2732353.755,-0.00023,-0.00099,8e-05,6,3,0.6
3.355,2732353.774,-0.00023,-0.00038,-0.00053,6,3,0.6
3.381,2732353.793,-0.00023,-0.00099,-0.00053,6,3,0.6
3.397,2732353.812,0.00038,-0.00099,-0.00115,6,3,0.6
3.417,2732353.831,0.00038,-0.00038,-0.00053,6,3,0.6
3.436,2732353.85,-0.00023,-0.00038,0.00069,6,3,0.6
3.454,2732353.869,0.00038,0.00023,8e-05,6,3,0.6
3.47,2732353.888,-0.00023,-0.00038,8e-05,6,3,0.6
3.49,2732353.907,-0.00023,0.00023,-0.00046,6,3,0.6
3.529,2732353.926,-0.00084,-0.00038,-0.00107,6,3,0.6
3.53,2732353.945,0.00038,0.00031,-0.00107,6,3,0.6
3.546,2732353.964,-0.00023,0.00031,0.00015,6,3,0.6
3.566,2732353.983,0.00099,0.00031,0.00015,6,3,0.6
3.583,2732354.002,-0.00084,-0.00031,0.00015,6,3,0.6
3.603,2732354.021,-0.00023,0.00031,-0.00046,6,3,0.6
3.622,2732354.04,-0.00023,-0.00031,-0.00046,6,3,0.6
3.641,2732354.059,0.00099,-0.00023,0.00015,6,3,0.6
3.661,2732354.078,-0.00023,0.00038,0.00015,6,3,0.6
3.682,2732354.097,-0.00084,0.00038,0.00015,6,3,0.6
3.703,2732354.116,-0.00023,-0.00023,-0.00046,6,3,0.6
3.721,2732354.135,-0.00023,-0.00023,0.00015,6,3,0.6
3.737,2732354.154,0.00038,0.00038,0.00076,6,3,0.6
3.755,2732354.173,0.00038,-0.00023,0.00084,6,3,0.6
3.776,2732354.192,0.00038,0.00038,0.00023,6,3,0.6
3.795,2732354.211,-0.00145,0.00046,0.00023,6,3,0.6
3.813,2732354.23,-0.00023,0.00046,0.00084,6,3,0.6
3.834,2732354.25,-0.00084,0.00046,0.00023,6,3,0.6
3.852,2732354.269,0.00099,0.00046,-0.00038,6,3,0.6
3.873,2732354.288,-0.00023,-0.00015,-0.00038,6,3,0.6
3.89,2732354.307,0.00099,0.00046,-0.00038,6,3,0.6
3.91,2732354.326,-0.00084,-0.00015,0.00023,6,3,0.6
3.929,2732354.345,-0.00015,0.00046,0.00023,6,3,0.6
3.946,2732354.364,-0.00015,0.00046,0.00084,6,3,0.6
3.965,2732354.383,0.00046,-0.00015,0.00023,6,3,0.6
3.983,2732354.402,-0.00015,0.00046,-0.00038,6,3,0.6
4.004,2732354.421,-0.00015,-0.00023,0.00023,6,3,0.6
4.023,2732354.44,-0.00015,-0.00023,-0.00038,6,3,0.6
4.042,2732354.459,-0.00015,-0.00023,-0.00038,6,3,0.6
4.06,2732354.478,-0.00015,-0.00023,0.00023,6,3,0.6
4.081,2732354.497,-0.00015,-0.00023,0.00023,6,3,0.6
4.1,2732354.516,0.00107,-0.00023,0.00023,6,3,0.6
4.118,2732354.535,-0.00015,0.00038,0.00023,6,3,0.6
4.137,2732354.554,0.00046,0.00031,0.00023,6,3,0.6
4.154,2732354.573,-0.00015,-0.00031,0.00015,6,3,0.6
4.175,2732354.592,0.00046,0.00031,0.00015,6,3,0.6
4.193,2732354.611,-0.00015,0.00031,-0.00046,6,3,0.6
4.215,2732354.63,0.00107,-0.00031,0.00015,6,3,0.6
4.231,2732354.649,-0.00015,0.00031,0.00076,6,3,0.6
4.255,2732354.668,-0.00015,-0.00031,0.00015,6,3,0.6
4.273,2732354.687,-0.00015,0.00031,-0.00046,6,3,0.6
4.289,2732354.706,-0.00015,-0.00031,-0.00046,6,3,0.6
4.311,2732354.725,-0.00015,-0.00031,0.00015,6,3,0.6
4.33,2732354.744,0.00046,0.00031,0.00015,6,3,0.6
4.346,2732354.763,0.00046,-0.00031,0.00015,6,3,0.6
4.364,2732354.782,-0.00015,-0.00031,-0.00046,6,3,0.6
4.383,2732354.801,0.00046,0.00031,8e-05,6,3,0.6
4.403,2732354.82,-0.00015,-0.00092,8e-05,6,3,0.6
4.423,2732354.839,0.00107,0.00031,8e-05,6,3,0.6
4.442,2732354.858,-0.00076,-0.00031,-0.00053,6,3,0.6
4.459,2732354.877,0.00046,-0.00031,-0.00053,6,3,0.6
4.482,2732354.896,-0.00015,0.00031,8e-05,6,3,0.6
4.501,2732354.915,0.00038,-0.00031,8e-05,6,3,0.6
4.52,2732354.934,0.00038,-0.00031,8e-05,6,3,0.6
4.541,2732354.953,0.00099,-0.00031,8e-05,6,3,0.6
4.556,2732354.972,0.00038,-0.00031,-0.00046,6,3,0.6
4.574,2732354.991,0.00099,0.00031,-0.00046,6,3,0.6
4.593,2732355.01,-0.00023,0.00031,0.00015,6,3,0.6
4.611,2732355.029,-0.00023,0.00031,-0.00046,6,3,0.6
4.632,2732355.048,-0.00023,-0.00031,0.00015,6,3,0.6
4.649,2732355.067,-0.00023,0.00038,0.00015,6,3,0.6
4.669,2732355.086,0.00099,0.00038,0.00015,6,3,0.6
4.689,2732355.105,-0.00031,0.00038,0.00015,6,3,0.6
4.708,2732355.124,0.00092,0.00099,0.00015,6,3,0.6
4.728,2732355.144,-0.00031,-0.00023,0.00076,6,3,0.6
4.747,2732355.163,0.00031,0.00038,0.00015,6,3,0.6
4.763,2732355.182,-0.00031,-0.00023,0.00015,6,3,0.6
4.782,2732355.201,0.00031,-0.00023,0.00015,6,3,0.6
4.806,2732355.22,-0.00092,-0.00023,0.00015,6,3,0.6
4.824,2732355.239,0.00031,-0.00023,0.00015,6,3,0.6
4.842,2732355.258,-0.00031,-0.00023,-0.00046,6,3,0.6
4.86,2732355.277,0.00023,-0.00023,-0.00046,6,3,0.6
4.879,2732355.296,0.00023,-0.00023,-0.00046,6,3,0.6
4.899,2732355.315,0.00023,0.00038,0.00015,6,3,0.6
4.921,2732355.334,0.00023,-0.00023,0.00076,6,3,0.6
4.94,2732355.353,0.00023,-0.00023,0.00015,6,3,0.6
4.955,2732355.372,0.00023,-0.00023,0.00076,6,3,0.6
4.974,2732355.391,-0.00038,-0.00023,0.00015,6,3,0.6
4.994,2732355.41,0.00023,-0.00023,0.00015,6,3,0.6
5.014,2732355.429,-0.00038,0.00038,-0.00046,6,3,0.6
5.031,2732355.448,0.00023,0.00038,-0.00046,6,3,0.6
5.05,2732355.467,-0.00099,-0.00023,-0.00046,6,3,0.6
5.069,2732355.486,0.00023,-0.00023,0.00076,6,3,0.6
5.087,2732355.505,-0.00038,0.00038,0.00076,6,3,0.6
5.106,2732355.524,0.00023,0.00038,0.00076,6,3,0.6
5.126,2732355.543,-0.00038,0.00038,0.00015,6,3,0.6
5.145,2732355.562,-0.00038,-0.00023,0.00015,6,3,0.6
5.163,2732355.581,-0.00038,0.00038,0.00015,6,3,0.6
5.18,2732355.6,0.00023,0.00038,0.00076,6,3,0.6
5.202,2732355.619,0.00023,0.00038,8e-05,6,3,0.6
5.224,2732355.638,0.00023,-0.00023,8e-05,6,3,0.6
5.241,2732355.657,0.00084,0.00038,8e-05,6,3,0.6
5.259,2732355.676,-0.00038,-0.00023,8e-05,6,3,0.6
5.279,2732355.695,0.00023,0.00038,-0.00053,6,3,0.6
5.299,2732355.714,-0.00099,-0.00023,-0.00053,6,3,0.6
5.319,2732355.733,0.00023,0.00038,-0.00053,6,3,0.6
5.337,2732355.752,-0.00038,-0.00023,-0.00053,6,3,0.6
5.355,2732355.771,0.00145,0.00038,8e-05,6,3,0.6
5.372,2732355.79,0.00023,-0.00023,-0.00053,6,3,0.6
5.396,2732355.809,0.00023,0.00038,8e-05,6,3,0.6
5.411,2732355.828,-0.00038,-0.00023,0.0,6,3,0.6
5.434,2732355.847,0.00023,-0.00023,0.0,6,3,0.6
5.449,2732355.866,-0.00038,0.00038,0.0,6,3,0.6
5.468,2732355.885,-0.00038,0.00038,-0.00061,6,3,0.6
5.488,2732355.904,-0.00038,0.00038,0.0,6,3,0.6
5.528,2732355.923,-0.00038,0.00031,0.0,6,3,0.6
5.53,2732355.942,0.00023,-0.00031,0.0,6,3,0.6
5.543,2732355.961,0.00023,0.00031,0.0,6,3,0.6
5.562,2732355.98,0.00023,0.00031,8e-05,6,3,0.6
5.581,2732355.999,-0.00099,-0.00031,8e-05,6,3,0.6
5.602,2732356.018,0.00023,0.00031,-0.00053,6,3,0.6
5.623,2732356.038,-0.00099,-0.00031,-0.00053,6,3,0.6
5.64,2732356.057,0.00084,0.00031,-0.00053,6,3,0.6
5.657,2732356.076,-0.00099,-0.00031,-0.00053,6,3,0.6
5.681,2732356.095,0.00023,-0.00031,-0.00053,6,3,0.6
5.701,2732356.114,-0.00099,-0.00031,8e-05,6,3,0.6
5.719,2732356.133,0.00023,-0.00031,8e-05,6,3,0.6
5.74,2732356.152,-0.00038,0.00031,8e-05,6,3,0.6
5.758,2732356.171,0.00023,-0.00031,8e-05,6,3,0.6
5.772,2732356.19,-0.00038,-0.00031,-0.00053,6,3,0.6
5.791,2732356.209,0.00023,0.00031,8e-05,6,3,0.6
5.814,2732356.228,0.00023,-0.00031,-0.00046,6,3,0.6
5.833,2732356.247,0.00031,0.00031,-0.00046,6,3,0.6
5.853,2732356.266,0.00031,-0.00031,-0.00046,6,3,0.6
5.868,2732356.285,-0.00031,0.00031,-0.00046,6,3,0.6
5.886,2732356.304,0.00031,0.00031,-0.00046,6,3,0.6
5.906,2732356.323,-0.00092,-0.00092,-0.00046,6,3,0.6
5.924,2732356.342,0.00092,0.00031,0.00015,6,3,0.6
5.944,2732356.361,-0.00031,-0.00031,0.00023,6,3,0.6
5.963,2732356.38,0.00031,0.00031,0.00023,6,3,0.6
5.983,2732356.399,-0.00092,-0.00031,0.00023,6,3,0.6
6.003,2732356.418,0.00031,0.00092,0.00023,6,3,0.6
6.025,2732356.437,-0.00031,-0.00031,-0.00038,6,3,0.6
6.043,2732356.456,0.00092,-0.00031,-0.00038,6,3,0.6
6.057,2732356.475,0.00092,0.00031,-0.00038,6,3,0.6
6.08,2732356.494,0.00031,-0.00031,-0.00038,6,3,0.6
6.096,2732356.513,-0.00031,0.00031,-0.00038,6,3,0.6
6.115,2732356.532,-0.00031,-0.00031,0.00023,6,3,0.6
6.134,2732356.551,0.00031,-0.00031,0.00031,6,3,0.6
6.153,2732356.57,0.00031,-0.00031,0.00092,6,3,0.6
6.172,2732356.589,0.00031,0.00031,-0.00031,6,3,0.6
6.191,2732356.608,-0.00031,-0.00031,-0.00031,6,3,0.6
6.214,2732356.627,0.00092,0.00031,-0.00031,6,3,0.6
6.234,2732356.646,-0.00092,0.00031,0.00031,6,3,0.6
6.248,2732356.665,0.00031,-0.00031,0.00031,6,3,0.6
6.266,2732356.684,-0.00092,-0.00031,0.00031,6,3,0.6
6.285,2732356.703,0.00092,0.00031,0.00031,6,3,0.6
6.306,2732356.722,-0.00031,-0.00031,-0.00092,6,3,0.6
6.324,2732356.741,0.00031,0.00031,-0.00031,6,3,0.6
6.344,2732356.76,-0.00092,-0.00031,-0.00031,6,3,0.6
6.361,2732356.779,-0.00031,0.00031,0.00031,6,3,0.6
6.384,2732356.798,0.00031,0.00031,-0.00031,6,3,0.6
6.405,2732356.817,0.00031,0.00031,0.00031,6,3,0.6
6.426,2732356.836,0.00023,-0.00031,0.00031,6,3,0.6
6.44,2732356.855,-0.00038,-0.00031,-0.00031,6,3,0.6
6.458,2732356.874,0.00023,-0.00031,0.00031,6,3,0.6
6.477,2732356.893,-0.00038,-0.00031,0.00031,6,3,0.6
6.498,2732356.912,0.00023,-0.00031,0.00031,6,3,0.6
6.518,2732356.932,-0.00038,0.00031,0.00092,6,3,0.6
6.538,2732356.951,0.00084,0.00031,0.00031,6,3,0.6
6.558,2732356.97,-0.00038,0.00031,0.00031,6,3,0.6
6.573,2732356.989,0.00084,0.00031,-0.00031,6,3,0.6
6.589,2732357.008,-0.00038,-0.00031,0.00031,6,3,0.6
6.609,2732357.027,0.00023,0.00031,0.00031,6,3,0.6
6.628,2732357.046,-0.00038,-0.00031,0.00031,6,3,0.6
6.648,2732357.065,0.00023,0.00031,0.00031,6,3,0.6
6.665,2732357.084,-0.00038,-0.00031,0.00031,6,3,0.6
6.684,2732357.103,-0.00038,-0.00031,0.00031,6,3,0.6
6.704,2732357.122,-0.00038,-0.00031,0.00031,6,3,0.6
6.723,2732357.141,-0.00038,0.00031,0.00031,6,3,0.6
6.742,2732357.16,0.00084,-0.00031,0.00092,6,3,0.6
6.761,2732357.179,-0.00038,-0.00031,0.00084,6,3,0.6
6.781,2732357.198,0.00023,-0.00031,0.00023,6,3,0.6
6.803,2732357.217,-0.00099,-0.00031,0.00023,6,3,0.6
6.824,2732357.236,0.00023,0.00031,0.00023,6,3,0.6
6.839,2732357.255,-0.00099,0.00031,-0.00038,6,3,0.6
6.855,2732357.274,0.00023,0.00031,-0.00038,6,3,0.6
6.876,2732357.293,-0.00038,-0.00031,0.00023,6,3,0.6
6.895,2732357.312,0.00023,0.00031,0.00076,6,3,0.6
6.918,2732357.331,-0.00031,0.00031,0.00015,6,3,0.6
6.936,2732357.35,0.00092,0.00031,0.00015,6,3,0.6
6.954,2732357.369,-0.00031,-0.00031,0.00015,6,3,0.6
6.974,2732357.388,0.00031,0.00031,-0.00046,6,3,0.6
6.99,2732357.407,-0.00031,0.00031,0.00015,6,3,0.6
7.012,2732357.426,-0.00031,-0.00031,0.00069,6,3,0.6
7.029,2732357.445,-0.00031,0.00031,0.00069,6,3,0.6
7.047,2732357.464,-0.00031,-0.00031,8e-05,6,3,0.6
7.07,2732357.483,0.00031,0.00031,-0.00053,6,3,0.6
7.083,2732357.502,-0.00031,-0.00031,-0.00053,6,3,0.6
7.102,2732357.521,0.00031,0.00031,-0.00053,6,3,0.6
7.123,2732357.54,-0.00031,0.00031,-0.00053,6,3,0.6
7.14,2732357.559,0.00092,0.00031,-0.00061,6,3,0.6
7.16,2732357.578,-0.00031,0.00031,-0.00061,6,3,0.6
7.181,2732357.597,0.00092,0.00031,0.0,6,3,0.6
7.199,2732357.616,-0.00031,-0.00031,0.0,6,3,0.6
7.22,2732357.635,0.00031,0.00031,0.0,6,3,0.6
7.242,2732357.654,0.00031,-0.00031,0.0,6,3,0.6
7.259,2732357.673,0.00031,-0.00031,0.0,6,3,0.6
7.275,2732357.692,-0.00031,-0.00031,0.0,6,3,0.6
7.299,2732357.711,-0.00031,-0.00031,-0.00061,6,3,0.6
7.315,2732357.73,0.00031,-0.00031,0.0,6,3,0.6
7.332,2732357.749,-0.00031,0.00031,0.0,6,3,0.6
7.354,2732357.768,0.00092,0.00031,-0.00061,6,3,0.6
7.373,2732357.787,0.00031,-0.00031,-0.00053,6,3,0.6
7.39,2732357.806,0.00031,0.00031,8e-05,6,3,0.6
7.412,2732357.826,-0.00092,-0.00031,0.00069,6,3,0.6
7.428,2732357.845,0.00092,0.00023,8e-05,6,3,0.6
7.451,2732357.864,-0.00031,-0.00038,-0.00053,6,3,0.6
7.464,2732357.883,0.00092,-0.00038,-0.00053,6,3,0.6
7.483,2732357.902,-0.00031,-0.00038,8e-05,6,3,0.6
7.502,2732357.921,0.00153,0.00023,8e-05,6,3,0.6
7.528,2732357.94,-0.00031,-0.00038,0.00069,6,3,0.6
7.54,2732357.959,0.00031,-0.00038,8e-05,6,3,0.6
7.561,2732357.978,0.00031,-0.00038,0.00015,6,3,0.6
7.579,2732357.997,-0.00031,0.00023,0.00015,6,3,0.6
7.599,2732358.016,-0.00038,-0.00031,0.00015,6,3,0.6
7.617,2732358.035,-0.00038,0.00031,0.00015,6,3,0.6
7.636,2732358.054,-0.00038,-0.00031,-0.00046,6,3,0.6
7.654,2732358.073,-0.00038,0.00031,-0.00046,6,3,0.6
7.675,2732358.092,0.00023,0.00031,0.00015,6,3,0.6
7.696,2732358.111,-0.00038,0.00031,0.00015,6,3,0.6
7.713,2732358.13,0.00084,0.00031,-0.00046,6,3,0.6
7.734,2732358.149,-0.00038,0.00031,-0.00046,6,3,0.6
7.752,2732358.168,0.00023,0.00031,0.00015,6,3,0.6
7.769,2732358.187,-0.00038,-0.00031,0.00015,6,3,0.6
7.787,2732358.206,0.00015,0.00092,0.00015,6,3,0.6
7.809,2732358.225,-0.00046,-0.00031,0.00015,6,3,0.6
7.828,2732358.244,0.00015,-0.00031,0.00076,6,3,0.6
7.85,2732358.263,-0.00046,0.00031,0.00015,6,3,0.6
7.864,2732358.282,0.00015,0.00031,-0.00046,6,3,0.6
7.883,2732358.301,0.00015,0.00031,-0.00046,6,3,0.6
7.903,2732358.32,0.00015,0.00031,-0.00046,6,3,0.6
7.922,2732358.339,0.00015,0.00031,0.00015,6,3,0.6
7.942,2732358.358,-0.00107,-0.00031,-0.00046,6,3,0.6
7.96,2732358.377,-0.00046,-0.00031,-0.00046,6,3,0.6
7.982,2732358.396,-0.00046,-0.00031,0.00076,6,3,0.6
7.998,2732358.415,0.00015,-0.00031,0.00015,6,3,0.6
8.017,2732358.434,-0.00038,0.00031,-0.00046,6,3,0.6
8.037,2732358.453,0.00084,0.00031,-0.00046,6,3,0.6
8.06,2732358.472,-0.00038,-0.00031,-0.00046,6,3,0.6
8.074,2732358.491,0.00084,0.00031,-0.00046,6,3,0.6
8.096,2732358.51,-0.00038,-0.00031,-0.00046,6,3,0.6
8.111,2732358.529,0.00023,0.00031,-0.00046,6,3,0.6
8.131,2732358.548,0.00023,-0.00031,0.00015,6,3,0.6
8.151,2732358.567,0.00023,-0.00038,0.00015,6,3,0.6
8.169,2732358.586,0.00023,-0.00038,0.00015,6,3,0.6
8.189,2732358.605,0.00023,0.00023,0.00076,6,3,0.6
8.207,2732358.624,0.00023,0.00023,-0.00046,6,3,0.6
8.226,2732358.643,-0.00038,-0.00038,-0.00046,6,3,0.6
8.248,2732358.662,0.00084,-0.00038,-0.00099,6,3,0.6
8.263,2732358.681,-0.00099,0.00023,-0.00038,6,3,0.6
8.282,2732358.7,0.00023,0.00023,0.00023,6,3,0.6
8.303,2732358.72,-0.00038,0.00023,0.00023,6,3,0.6
8.321,2732358.739,0.00023,-0.00038,0.00023,6,3,0.6
8.341,2732358.758,-0.00038,-0.00038,-0.00038,6,3,0.6
8.359,2732358.777,0.00084,0.00023,0.00023,6,3,0.6
8.379,2732358.796,-0.00038,-0.00038,0.00023,6,3,0.6
8.402,2732358.815,0.00023,-0.00038,0.00023,6,3,0.6
8.419,2732358.834,-0.00038,-0.00038,0.00084,6,3,0.6
8.439,2732358.853,0.00023,0.00023,0.00023,6,3,0.6
8.456,2732358.872,-0.00038,-0.00038,0.00023,6,3,0.6
8.474,2732358.891,0.00023,-0.00038,0.00031,6,3,0.6
8.493,2732358.91,0.00023,0.00031,0.00092,6,3,0.6
8.514,2732358.929,-0.00038,-0.00031,0.00031,6,3,0.6
8.532,2732358.948,0.00023,-0.00031,0.00031,6,3,0.6
8.551,2732358.967,-0.00038,0.00031,0.00031,6,3,0.6
8.572,2732358.986,0.00023,0.00031,0.00031,6,3,0.6
8.588,2732359.005,-0.00038,0.00031,0.00031,6,3,0.6
8.606,2732359.024,0.00023,0.00031,0.00031,6,3,0.6
8.626,2732359.043,-0.00038,-0.00031,0.00023,6,3,0.6
8.645,2732359.062,0.00084,0.00031,0.00023,6,3,0.6
8.663,2732359.081,-0.00099,-0.00031,-0.00038,6,3,0.6
8.685,2732359.1,0.00023,0.00031,0.00023,6,3,0.6
8.706,2732359.119,0.00023,0.00031,-0.00038,6,3,0.6
8.726,2732359.138,0.00023,0.00031,0.00023,6,3,0.6
8.742,2732359.157,-0.00038,-0.00031,0.00023,6,3,0.6
8.758,2732359.176,0.00023,-0.00031,0.00023,6,3,0.6
8.778,2732359.195,0.00023,0.00031,-0.00046,6,3,0.6
8.797,2732359.214,-0.00038,-0.00031,0.00015,6,3,0.6
8.819,2732359.233,0.00023,-0.00031,-0.00046,6,3,0.6
8.835,2732359.252,-0.00038,-0.00031,0.00015,6,3,0.6
8.856,2732359.271,0.00023,-0.00031,0.00015,6,3,0.6
8.872,2732359.29,-0.00038,0.00031,-0.00046,6,3,0.6
8.893,2732359.309,0.00023,0.00031,-0.00046,6,3,0.6
8.913,2732359.328,-0.00038,0.00031,-0.00053,6,3,0.6
8.932,2732359.347,0.00084,0.00031,8e-05,6,3,0.6
8.949,2732359.366,-0.00038,0.00031,8e-05,6,3,0.6
8.972,2732359.385,0.00023,0.00031,-0.00053,6,3,0.6
8.987,2732359.404,-0.00038,-0.00031,-0.00053,6,3,0.6
9.006,2732359.423,0.00023,-0.00031,-0.00053,6,3,0.6
9.025,2732359.442,-0.00038,-0.00031,-0.00053,6,3,0.6
9.045,2732359.461,-0.00038,0.00092,8e-05,6,3,0.6
9.062,2732359.48,0.00023,-0.00031,8e-05,6,3,0.6
9.083,2732359.499,0.00023,0.00031,-0.00053,6,3,0.6
9.101,2732359.518,0.00023,-0.00031,-0.00115,6,3,0.6
9.126,2732359.537,-0.00038,-0.00031,8e-05,6,3,0.6
9.139,2732359.556,0.00023,0.00031,0.00015,6,3,0.6
9.157,2732359.575,-0.00038,-0.00031,-0.00046,6,3,0.6
9.178,2732359.594,0.00023,0.00031,0.00015,6,3,0.6
9.2,2732359.614,-0.00038,-0.00031,0.00015,6,3,0.6
9.22,2732359.633,0.00084,0.00031,0.00015,6,3,0.6
9.234,2732359.652,-0.00038,-0.00092,0.00015,6,3,0.6
9.258,2732359.671,0.00084,0.00031,0.00023,6,3,0.6
9.274,2732359.69,-0.00038,-0.00031,0.00084,6,3,0.6
9.291,2732359.709,0.00023,0.00031,-0.00038,6,3,0.6
9.312,2732359.728,0.00023,0.00031,0.00023,6,3,0.6
9.333,2732359.747,0.00084,0.00031,0.00023,6,3,0.6
9.351,2732359.766,0.00023,0.00031,-0.00038,6,3,0.6
9.368,2732359.785,0.00023,0.00031,-0.00038,6,3,0.6
9.386,2732359.804,0.00023,-0.00031,-0.00038,6,3,0.6
9.405,2732359.823,0.00023,0.00031,-0.00038,6,3,0.6
9.425,2732359.842,0.00023,-0.00031,0.00031,6,3,0.6
9.443,2732359.861,-0.00038,0.00031,-0.00031,6,3,0.6
9.462,2732359.88,0.00023,-0.00031,-0.00031,6,3,0.6
9.481,2732359.899,-0.00038,-0.00031,-0.00031,6,3,0.6
9.502,2732359.918,0.00084,-0.00031,-0.00031,6,3,0.6
9.529,2732359.937,-0.00038,-0.00031,0.00031,6,3,0.6
9.538,2732359.956,0.00023,0.00031,0.00031,6,3,0.6
9.556,2732359.975,-0.00038,-0.00031,0.00031,6,3,0.6
9.577,2732359.994,0.00015,-0.00031,0.00092,6,3,0.6
9.596,2732360.013,-0.00046,-0.00031,0.00031,6,3,0.6
9.615,2732360.032,0.00076,0.00031,0.00031,6,3,0.6
9.638,2732360.051,-0.00046,-0.00031,-0.00031,6,3,0.6
9.653,2732360.07,-0.00046,0.00031,0.00031,6,3,0.6
9.67,2732360.089,-0.00046,0.00031,-0.00031,6,3,0.6
9.691,2732360.108,0.00015,-0.00031,0.00031,6,3,0.6
9.712,2732360.127,0.00076,-0.00031,0.00031,6,3,0.6
9.732,2732360.146,0.00015,-0.00031,0.00031,6,3,0.6
9.752,2732360.165,0.00076,0.00031,-0.00031,6,3,0.6
9.767,2732360.184,-0.00046,-0.00031,-0.00031,6,3,0.6
9.784,2732360.203,0.00015,0.00031,0.00023,6,3,0.6
9.806,2732360.222,-0.00046,-0.00031,0.00023,6,3,0.6
9.825,2732360.241,0.00015,-0.00031,0.00023,6,3,0.6
9.842,2732360.26,-0.00046,-0.00031,0.00023,6,3,0.6
9.86,2732360.279,0.00015,-0.00031,-0.00038,6,3,0.6
9.885,2732360.298,-0.00107,-0.00031,-0.00038,6,3,0.6
9.908,2732360.317,-0.00046,0.00031,-0.00038,6,3,0.6
9.924,2732360.336,-0.00046,0.00031,-0.00038,6,3,0.6
9.938,2732360.355,-0.00046,-0.00031,0.00023,6,3,0.6
9.956,2732360.374,-0.00046,-0.00031,0.00023,6,3,0.6
9.976,2732360.393,0.00015,0.00038,-0.00038,6,3,0.6
9.999,2732360.412,0.00015,0.00038,-0.00038,6,3,0.6
10.014,2732360.431,-0.00046,0.00038,-0.00038,6,3,0.6
10.036,2732360.45,0.00015,0.00038,0.00023,6,3,0.6
10.053,2732360.469,0.00015,-0.00023,0.00023,6,3,0.6
10.071,2732360.488,-0.00046,0.00038,0.00023,6,3,0.6
10.095,2732360.508,-0.00046,-0.00023,-0.00038,6,3,0.6
10.108,2732360.527,0.00076,0.00038,0.00023,6,3,0.6
10.128,2732360.546,-0.00046,-0.00023,0.00023,6,3,0.6
10.147,2732360.565,0.00023,0.00038,0.00084,6,3,0.6
10.167,2732360.584,-0.00099,-0.00023,0.00023,6,3,0.6
10.183,2732360.603,0.00084,0.00038,0.00023,6,3,0.6
10.204,2732360.622,-0.00099,0.00038,-0.00038,6,3,0.6
10.225,2732360.641,-0.00038,0.00038,0.00023,6,3,0.6
10.242,2732360.66,-0.00038,0.00038,0.00023,6,3,0.6
10.265,2732360.679,0.00023,0.00099,0.00023,6,3,0.6
10.283,2732360.698,-0.00099,-0.00023,0.00023,6,3,0.6
10.303,2732360.717,-0.00038,0.00038,0.00023,6,3,0.6
10.319,2732360.736,0.00023,-0.00023,-0.00038,6,3,0.6
10.34,2732360.755,-0.00031,-0.00023,-0.00038,6,3,0.6
10.358,2732360.774,0.00031,-0.00031,-0.00038,6,3,0.6
10.375,2732360.793,-0.00031,0.00031,0.00023,6,3,0.6
10.398,2732360.812,0.00031,0.00031,0.00023,6,3,0.6
10.414,2732360.831,-0.00092,-0.00031,0.00023,6,3,0.6
10.437,2732360.85,0.00031,-0.00031,0.00023,6,3,0.6
10.455,2732360.869,-0.00031,-0.00031,0.00084,6,3,0.6
10.47,2732360.888,0.00038,-0.00031,0.00084,6,3,0.6
10.49,2732360.907,-0.00023,-0.00092,0.00084,6,3,0.6
10.513,2732360.926,0.00038,-0.00031,0.00084,6,3,0.6
10.529,2732360.945,-0.00023,-0.00031,0.00084,6,3,0.6
10.551,2732360.964,0.00038,-0.00031,0.00023,6,3,0.6
10.565,2732360.983,0.00038,-0.00031,0.00084,6,3,0.6
10.583,2732361.002,0.00038,-0.00099,0.00015,6,3,0.6
10.605,2732361.021,0.00099,-0.00031,0.00076,6,3,0.6
10.625,2732361.04,0.00038,-0.00031,0.00015,6,3,0.6
10.64,2732361.059,0.00038,0.00092,0.00015,6,3,0.6
10.661,2732361.078,-0.00084,0.00092,-0.00046,6,3,0.6
10.68,2732361.097,-0.00023,-0.00031,-0.00046,6,3,0.6
10.703,2732361.116,-0.00084,-0.00031,8e-05,6,3,0.6
10.722,2732361.135,0.00038,-0.00031,8e-05,6,3,0.6
10.741,2732361.154,-0.00023,-0.00092,8e-05,6,3,0.6
10.755,2732361.173,0.00038,-0.00031,-0.00053,6,3,0.6
10.775,2732361.192,0.00038,-0.00031,8e-05,6,3,0.6
10.795,2732361.211,0.00038,0.00031,0.0,6,3,0.6
10.818,2732361.23,-0.00023,-0.00031,0.0,6,3,0.6
10.835,2732361.249,0.00038,0.00038,0.0,6,3,0.6
10.851,2732361.268,-0.00023,-0.00023,0.0,6,3,0.6
10.869,2732361.287,-0.00023,0.00038,-0.0,6,3,0.6
10.888,2732361.306,-0.00023,0.00038,-0.0,6,3,0.6
10.91,2732361.325,-0.00084,-0.00023,-0.00061,6,3,0.6
10.928,2732361.344,0.00038,-0.00023,-0.0,6,3,0.6
10.947,2732361.363,-0.00084,-0.00023,-8e-05,6,3,0.6
10.964,2732361.382,0.00038,-0.00015,0.00053,6,3,0.6
10.983,2732361.401,-0.00092,-0.00015,0.00053,6,3,0.6
11.002,2732361.421,0.00031,0.00046,-8e-05,6,3,0.6
11.023,2732361.44,-0.00092,-0.00015,-8e-05,6,3,0.6
11.042,2732361.459,0.00092,-0.00015,-0.00069,6,3,0.6
11.062,2732361.478,-0.00092,-0.00015,-0.00069,6,3,0.6
11.084,2732361.497,0.00031,-0.00015,-0.00069,6,3,0.6
11.099,2732361.516,-0.00031,0.00046,-8e-05,6,3,0.6
11.117,2732361.535,0.00031,-0.00015,-8e-05,6,3,0.6
11.136,2732361.554,-0.00092,0.00046,-8e-05,6,3,0.6
11.154,2732361.573,-0.00023,0.00046,-8e-05,6,3,0.6
11.175,2732361.592,0.00038,0.00046,0.00053,6,3,0.6
11.195,2732361.611,-0.00023,0.00046,-0.0,6,3,0.6
11.213,2732361.63,0.00038,-0.00015,-0.0,6,3,0.6
11.232,2732361.649,-0.00023,-0.00015,-0.0,6,3,0.6
11.251,2732361.668,-0.00023,-0.00015,-0.00061,6,3,0.6
11.269,2732361.687,-0.00084,0.00046,-0.0,6,3,0.6
11.288,2732361.706,0.00099,0.00046,0.0,6,3,0.6
11.306,2732361.725,-0.00023,-0.00015,0.0,6,3,0.6
11.327,2732361.744,0.00038,0.00046,0.0,6,3,0.6
11.346,2732361.763,-0.00023,-0.00015,0.0,6,3,0.6
11.364,2732361.782,-0.00015,0.00046,0.0,6,3,0.6
11.385,2732361.801,-0.00076,-0.00076,0.00061,6,3,0.6
11.405,2732361.82,0.00046,0.00046,0.0,6,3,0.6
11.422,2732361.839,-0.00015,0.00038,0.00069,6,3,0.6
11.441,2732361.858,-0.00015,0.00038,8e-05,6,3,0.6
11.459,2732361.877,-0.00015,-0.00023,-0.00053,6,3,0.6
11.48,2732361.896,0.00046,-0.00023,-0.00053,6,3,0.6
11.502,2732361.915,0.00107,0.00038,8e-05,6,3,0.6
11.529,2732361.934,-0.00015,-0.00023,8e-05,6,3,0.6
11.535,2732361.953,0.00107,0.00038,-0.00053,6,3,0.6
11.554,2732361.972,-0.00015,-0.00023,8e-05,6,3,0.6
11.574,2732361.991,0.00046,0.00038,8e-05,6,3,0.6
11.593,2732362.01,-0.00076,0.00038,0.00069,6,3,0.6
11.611,2732362.029,0.00046,-0.00023,8e-05,6,3,0.6
11.631,2732362.048,-0.00076,0.00038,8e-05,6,3,0.6
11.649,2732362.067,0.00046,0.00038,8e-05,6,3,0.6
11.667,2732362.086,-0.00076,0.00038,8e-05,6,3,0.6
11.686,2732362.105,0.00046,0.00031,8e-05,6,3,0.6
11.706,2732362.124,-0.00015,-0.00031,-0.00053,6,3,0.6
11.725,2732362.143,0.00046,-0.00031,-0.00061,6,3,0.6
11.746,2732362.162,0.00046,-0.00031,0.0,6,3,0.6
11.763,2732362.181,-0.00015,-0.00031,0.0,6,3,0.6
11.781,2732362.2,0.00046,-0.00031,-0.00061,6,3,0.6
11.8,2732362.219,-0.00015,0.00031,-0.00122,6,3,0.6
11.82,2732362.238,0.00107,-0.00031,-0.00061,6,3,0.6
11.841,2732362.257,-0.00015,0.00031,0.0,6,3,0.6
11.858,2732362.276,0.00099,0.00031,-0.00061,6,3,0.6
11.878,2732362.295,-0.00084,-0.00031,-0.00053,6,3,0.6
11.9,2732362.315,0.00038,-0.00031,-0.00053,6,3,0.6
11.917,2732362.334,-0.00023,-0.00031,8e-05,6,3,0.6
11.938,2732362.353,0.00099,0.00031,8e-05,6,3,0.6
11.953,2732362.372,0.00038,0.00031,8e-05,6,3,0.6
11.973,2732362.391,0.00099,0.00031,8e-05,6,3,0.6
11.993,2732362.41,-0.00023,0.00031,-0.00053,6,3,0.6
12.014,2732362.429,0.00038,0.00031,8e-05,6,3,0.6
12.029,2732362.448,0.00038,0.00031,8e-05,6,3,0.6
12.05,2732362.467,0.00038,-0.00031,0.00015,6,3,0.6
12.068,2732362.486,0.00031,-0.00031,0.00076,6,3,0.6
12.09,2732362.505,-0.00031,-0.00031,0.00076,6,3,0.6
12.105,2732362.524,-0.00031,-0.00031,0.00015,6,3,0.6
12.124,2732362.543,0.00031,0.00031,0.00015,6,3,0.6
12.143,2732362.562,0.00031,-0.00031,0.00076,6,3,0.6
12.163,2732362.581,-0.00031,0.00031,0.00015,6,3,0.6
12.181,2732362.6,0.00153,0.00031,0.00015,6,3,0.6
12.202,2732362.619,-0.00031,-0.00031,0.00015,6,3,0.6
12.222,2732362.638,0.00031,0.00031,-0.00046,6,3,0.6
12.238,2732362.657,-0.00099,-0.00031,0.00023,6,3,0.6
12.258,2732362.676,-0.00038,0.00031,0.00023,6,3,0.6
12.277,2732362.695,-0.00038,-0.00031,0.00023,6,3,0.6
12.297,2732362.714,-0.00038,0.00031,0.00023,6,3,0.6
12.318,2732362.733,-0.00038,-0.00031,-0.00038,6,3,0.6
12.335,2732362.752,0.00023,-0.00031,0.00015,6,3,0.6
12.356,2732362.771,0.00023,0.00031,0.00015,6,3,0.6
12.371,2732362.79,-0.00038,-0.00031,0.00015,6,3,0.6
12.391,2732362.809,0.00023,-0.00031,0.00015,6,3,0.6
12.409,2732362.828,-0.00038,-0.00031,0.00076,6,3,0.6
12.429,2732362.847,0.00076,-0.00031,0.00015,6,3,0.6
12.451,2732362.866,-0.00046,-0.00031,0.00015,6,3,0.6
12.467,2732362.885,0.00015,0.00031,0.00015,6,3,0.6
12.486,2732362.904,-0.00046,0.00031,0.00076,6,3,0.6
12.506,2732362.923,-0.00046,-0.00031,0.00015,6,3,0.6
12.525,2732362.942,-0.00046,-0.00031,-0.00053,6,3,0.6
12.543,2732362.961,0.00015,0.00031,8e-05,6,3,0.6
12.562,2732362.98,-0.00038,-0.00031,0.00069,6,3,0.6
12.581,2732362.999,0.00023,0.00031,8e-05,6,3,0.6
12.603,2732363.018,-0.00038,-0.00092,8e-05,6,3,0.6
12.624,2732363.037,-0.00038,-0.00031,8e-05,6,3,0.6
12.637,2732363.056,-0.00038,-0.00031,8e-05,6,3,0.6
12.656,2732363.075,0.00023,0.00031,0.0,6,3,0.6
12.678,2732363.094,0.00023,0.00031,0.0,6,3,0.6
12.695,2732363.113,-0.00038,0.00031,0.0,6,3,0.6
12.713,2732363.132,-0.00038,0.00031,-0.00061,6,3,0.6
12.733,2732363.151,-0.00038,0.00038,-0.00061,6,3,0.6
12.755,2732363.17,0.00084,-0.00023,-0.00061,6,3,0.6
12.77,2732363.189,-0.00031,-0.00023,-0.0,6,3,0.6
12.79,2732363.209,0.00031,0.00038,-0.0,6,3,0.6
12.809,2732363.228,-0.00092,0.00038,-0.0,6,3,0.6
12.831,2732363.247,0.00031,0.00038,-0.0,6,3,0.6
12.849,2732363.266,-0.00031,0.00038,-0.0,6,3,0.6
12.867,2732363.285,0.00031,-0.00023,-0.00061,6,3,0.6
12.886,2732363.304,-0.00031,0.00038,-0.00061,6,3,0.6
12.905,2732363.323,0.00031,-0.00023,-0.00061,6,3,0.6
12.924,2732363.342,0.00031,0.00038,0.00061,6,3,0.6
12.942,2732363.361,-0.00031,0.00038,-0.0,6,3,0.6
12.962,2732363.38,-0.00092,0.00038,-0.0,6,3,0.6
12.98,2732363.399,-0.00092,0.00038,0.0,6,3,0.6
13.001,2732363.418,0.00031,0.00038,0.0,6,3,0.6
13.019,2732363.437,-0.00031,0.00038,0.0,6,3,0.6
13.038,2732363.456,0.00038,-0.00023,-0.00061,6,3,0.6
13.056,2732363.475,-0.00023,0.00038,0.0,6,3,0.6
13.082,2732363.494,0.00038,0.00031,0.0,6,3,0.6
13.096,2732363.513,-0.00023,0.00031,8e-05,6,3,0.6
13.114,2732363.532,0.00099,0.00031,8e-05,6,3,0.6
13.133,2732363.551,0.00038,-0.00031,8e-05,6,3,0.6
13.152,2732363.57,0.00038,0.00031,8e-05,6,3,0.6
13.17,2732363.589,-0.00023,-0.00031,8e-05,6,3,0.6
13.19,2732363.608,0.00099,0.00031,8e-05,6,3,0.6
13.208,2732363.627,-0.00023,-0.00031,8e-05,6,3,0.6
13.228,2732363.646,0.00038,0.00023,8e-05,6,3,0.6
13.248,2732363.665,-0.00023,-0.00038,8e-05,6,3,0.6
13.266,2732363.684,-0.00023,-0.00038,0.00069,6,3,0.6
13.284,2732363.703,0.00038,0.00023,-0.00053,6,3,0.6
13.303,2732363.722,-0.00023,0.00023,-0.00053,6,3,0.6
13.323,2732363.741,0.00038,0.00023,-0.00053,6,3,0.6
13.342,2732363.76,-0.00023,-0.00038,-0.00053,6,3,0.6
13.361,2732363.779,-0.00023,0.00023,8e-05,6,3,0.6
13.38,2732363.798,-0.00084,-0.00038,8e-05,6,3,0.6
13.402,2732363.817,0.00038,-0.00038,8e-05,6,3,0.6
13.419,2732363.836,-0.00023,0.00023,8e-05,6,3,0.6
13.437,2732363.855,0.00099,0.00015,8e-05,6,3,0.6
13.455,2732363.874,-0.00023,-0.00046,8e-05,6,3,0.6
13.475,2732363.893,0.00031,-0.00046,8e-05,6,3,0.6
13.5,2732363.912,-0.00031,-0.00046,0.00069,6,3,0.6
13.526,2732363.931,-0.00031,0.00015,8e-05,6,3,0.6
13.533,2732363.95,0.00031,-0.00046,8e-05,6,3,0.6
13.551,2732363.969,-0.00031,-0.00046,-0.00053,6,3,0.6
13.57,2732363.988,0.00031,0.00023,-0.00053,6,3,0.6
13.589,2732364.007,-0.00031,0.00023,8e-05,6,3,0.6
13.609,2732364.026,0.00092,0.00023,0.00069,6,3,0.6
13.628,2732364.045,0.00031,-0.00038,8e-05,6,3,0.6
13.646,2732364.064,0.00031,-0.00038,8e-05,6,3,0.6
13.665,2732364.083,-0.00031,-0.00038,8e-05,6,3,0.6
13.683,2732364.103,0.00092,0.00023,0.00069,6,3,0.6
13.703,2732364.122,-0.00031,-0.00038,0.00069,6,3,0.6
13.722,2732364.141,0.00031,0.00084,8e-05,6,3,0.6
13.742,2732364.16,-0.00031,-0.00038,8e-05,6,3,0.6
13.76,2732364.179,0.00031,0.00023,8e-05,6,3,0.6
13.78,2732364.198,-0.00031,0.00023,8e-05,6,3,0.6
13.801,2732364.217,-0.00031,0.00031,-0.00053,6,3,0.6
13.819,2732364.236,0.00031,0.00031,8e-05,6,3,0.6
13.838,2732364.255,0.00031,-0.00031,0.00069,6,3,0.6
13.855,2732364.274,-0.00031,0.00031,0.00069,6,3,0.6
13.879,2732364.293,-0.00031,-0.00031,8e-05,6,3,0.6
13.895,2732364.312,-0.00031,0.00031,8e-05,6,3,0.6
13.914,2732364.331,0.00031,-0.00031,8e-05,6,3,0.6
13.932,2732364.35,0.00092,-0.00031,8e-05,6,3,0.6
13.951,2732364.369,-0.00031,0.00031,-0.00061,6,3,0.6
13.972,2732364.388,0.00092,0.00031,0.0,6,3,0.6
13.989,2732364.407,-0.00031,-0.00031,-0.00061,6,3,0.6
14.011,2732364.426,0.00092,0.00031,-0.00061,6,3,0.6
14.031,2732364.445,-0.00038,-0.00031,0.0,6,3,0.6
14.049,2732364.464,0.00023,0.00031,0.0,6,3,0.6
14.065,2732364.483,-0.00099,-0.00031,-0.0,6,3,0.6
14.083,2732364.502,0.00023,0.00031,-0.0,6,3,0.6
14.103,2732364.521,-0.00038,-0.00031,-0.0,6,3,0.6
14.122,2732364.54,0.00023,0.00031,-0.0,6,3,0.6
14.141,2732364.559,-0.00038,-0.00031,-0.0,6,3,0.6
14.161,2732364.578,-0.00038,0.00031,-0.00061,6,3,0.6
14.181,2732364.597,0.00023,-0.00031,0.00061,6,3,0.6
14.199,2732364.616,-0.00038,-0.00031,-0.0,6,3,0.6
14.222,2732364.635,0.00023,0.00031,-0.0,6,3,0.6
14.236,2732364.654,-0.00099,-0.00031,-0.0,6,3,0.6
14.255,2732364.673,0.00023,0.00031,-0.00061,6,3,0.6
14.274,2732364.692,-0.00099,-0.00031,-0.00061,6,3,0.6
14.294,2732364.711,0.00023,0.00031,-0.00061,6,3,0.6
14.316,2732364.73,-0.00038,0.00031,-0.0,6,3,0.6
14.335,2732364.749,-0.00038,0.00031,-0.00061,6,3,0.6
14.355,2732364.768,-0.00038,0.00031,0.0,6,3,0.6
14.37,2732364.787,0.00084,-0.00031,0.0,6,3,0.6
14.388,2732364.806,-0.00038,-0.00031,0.0,6,3,0.6
14.41,2732364.825,-0.00099,-0.00031,-0.00061,6,3,0.6
14.428,2732364.844,-0.00099,0.00031,0.0,6,3,0.6
14.451,2732364.863,-0.00038,0.00031,8e-05,6,3,0.6
14.464,2732364.882,-0.00031,0.00031,-0.00053,6,3,0.6
14.482,2732364.901,-0.00031,0.00031,-0.00053,6,3,0.6
14.502,2732364.92,0.00031,-0.00031,-0.00053,6,3,0.6
14.522,2732364.939,-0.00031,-0.00031,-0.00053,6,3,0.6
14.541,2732364.958,0.00092,0.00031,8e-05,6,3,0.6
14.564,2732364.977,-0.00031,-0.00031,-0.00053,6,3,0.6
14.585,2732364.997,0.00031,0.00031,8e-05,6,3,0.6
14.598,2732365.016,-0.00023,-0.00031,0.00015,6,3,0.6
14.617,2732365.035,0.00099,-0.00031,0.00015,6,3,0.6
14.64,2732365.054,-0.00023,0.00031,0.00015,6,3,0.6
14.654,2732365.073,0.00099,-0.00031,-0.00046,6,3,0.6
14.674,2732365.092,-0.00023,-0.00031,0.00015,6,3,0.6
14.694,2732365.111,0.00038,-0.00031,-0.00046,6,3,0.6
14.712,2732365.13,-0.00023,0.00031,-0.00107,6,3,0.6
14.731,2732365.149,-0.00023,0.00031,-0.00046,6,3,0.6
14.754,2732365.168,0.00038,-0.00031,0.00023,6,3,0.6
14.771,2732365.187,-0.00023,0.00031,0.00023,6,3,0.6
14.789,2732365.206,0.00099,-0.00031,0.00023,6,3,0.6
14.812,2732365.225,-0.00023,0.00031,0.00023,6,3,0.6
14.827,2732365.244,0.00038,-0.00031,0.00023,6,3,0.6
14.845,2732365.263,-0.00023,-0.00031,-0.00038,6,3,0.6
14.864,2732365.282,0.00038,0.00031,0.00023,6,3,0.6
14.882,2732365.301,-0.00084,-0.00031,0.00023,6,3,0.6
14.902,2732365.32,0.00038,0.00031,0.00023,6,3,0.6
14.925,2732365.339,0.00038,-0.00031,0.00023,6,3,0.6
14.942,2732365.358,0.00038,0.00031,0.00031,6,3,0.6
14.958,2732365.377,-0.00084,-0.00031,0.00031,6,3,0.6
14.983,2732365.396,0.00038,0.00031,0.00092,6,3,0.6
15.002,2732365.415,-0.00023,-0.00031,0.00031,6,3,0.6
15.022,2732365.434,-0.00023,0.00031,0.00031,6,3,0.6
15.04,2732365.453,-0.00023,0.00031,0.00031,6,3,0.6
15.055,2732365.472,-0.00023,0.00031,0.00031,6,3,0.6
15.073,2732365.491,0.00031,0.00092,0.00092,6,3,0.6
15.097,2732365.51,0.00031,-0.00031,0.00031,6,3,0.6
15.111,2732365.529,0.00092,-0.00031,-0.00038,6,3,0.6
15.132,2732365.548,-0.00031,-0.00031,0.00023,6,3,0.6
15.15,2732365.567,0.00031,0.00031,0.00023,6,3,0.6
15.17,2732365.586,-0.00031,0.00031,0.00023,6,3,0.6
15.188,2732365.605,0.00031,0.00092,0.00023,6,3,0.6
15.211,2732365.624,-0.00031,0.00092,-0.00038,6,3,0.6
15.225,2732365.643,0.00031,-0.00031,0.00023,6,3,0.6
15.246,2732365.662,-0.00031,0.00092,-0.00038,6,3,0.6
15.262,2732365.681,0.00031,0.00031,-0.00046,6,3,0.6
15.281,2732365.7,-0.00031,-0.00031,-0.00046,6,3,0.6
15.302,2732365.719,0.00031,-0.00031,0.00015,6,3,0.6
15.325,2732365.738,-0.00031,-0.00031,0.00015,6,3,0.6
15.341,2732365.757,0.00031,0.00031,-0.00046,6,3,0.6
15.359,2732365.776,0.00031,0.00031,-0.00046,6,3,0.6
15.379,2732365.795,-0.00031,0.00031,-0.00046,6,3,0.6
15.399,2732365.814,0.00031,-0.00038,-0.00046,6,3,0.6
15.416,2732365.833,-0.00092,-0.00038,8e-05,6,3,0.6
15.437,2732365.852,0.00031,0.00023,8e-05,6,3,0.6
15.456,2732365.871,-0.00031,-0.00038,8e-05,6,3,0.6
15.474,2732365.891,0.00031,0.00084,-0.00053,6,3,0.6
15.501,2732365.91,-0.00031,0.00023,-0.00053,6,3,0.6
15.529,2732365.929,0.00092,0.00084,8e-05,6,3,0.6
15.529,2732365.948,-0.00031,-0.00038,8e-05,6,3,0.6
15.549,2732365.967,0.00031,-0.00038,-0.00053,6,3,0.6
15.569,2732365.986,-0.00031,0.00015,-0.00053,6,3,0.6
15.587,2732366.005,-0.00031,-0.00046,-0.00046,6,3,0.6
15.606,2732366.024,-0.00031,-0.00046,-0.00046,6,3,0.6
15.626,2732366.043,0.00031,-0.00046,0.00076,6,3,0.6
15.645,2732366.062,0.00031,0.00015,0.00076,6,3,0.6
15.664,2732366.081,0.00031,0.00015,0.00015,6,3,0.6
15.684,2732366.1,0.00031,0.00015,0.00076,6,3,0.6
15.705,2732366.119,-0.00031,0.00015,0.00015,6,3,0.6
15.723,2732366.138,0.00031,0.00015,-0.00046,6,3,0.6
15.741,2732366.157,-0.00031,-0.00046,0.00023,6,3,0.6
15.757,2732366.176,0.00031,0.00015,0.00023,6,3,0.6
15.782,2732366.195,0.00031,-0.00046,0.00023,6,3,0.6
15.8,2732366.214,0.00031,-0.00046,0.00023,6,3,0.6
15.821,2732366.233,-0.00031,-0.00046,-0.00038,6,3,0.6
15.834,2732366.252,0.00031,0.00015,0.00023,6,3,0.6
15.857,2732366.271,-0.00031,-0.00046,0.00023,6,3,0.6
15.874,2732366.29,0.00031,0.00015,0.00023,6,3,0.6
15.891,2732366.309,0.00031,-0.00046,0.00023,6,3,0.6
15.913,2732366.328,0.00031,0.00015,-0.00038,6,3,0.6
15.931,2732366.347,0.00031,0.00015,-0.00038,6,3,0.6
15.949,2732366.366,-0.00031,0.00015,-0.00038,6,3,0.6
15.968,2732366.385,-0.00031,0.00023,-0.00038,6,3,0.6
15.986,2732366.404,-0.00031,-0.00038,0.00023,6,3,0.6
16.005,2732366.423,0.00031,0.00023,0.00084,6,3,0.6
16.025,2732366.442,-0.00031,0.00023,0.00084,6,3,0.6
16.051,2732366.461,0.00084,-0.00038,0.00084,6,3,0.6
16.062,2732366.48,-0.00038,-0.00038,0.00023,6,3,0.6
16.086,2732366.499,0.00023,-0.00038,0.00023,6,3,0.6
16.101,2732366.518,-0.00038,0.00023,0.00023,6,3,0.6
16.121,2732366.537,0.00023,0.00084,0.00076,6,3,0.6
16.138,2732366.556,-0.00038,-0.00038,0.00076,6,3,0.6
16.157,2732366.575,-0.00038,-0.00038,0.00015,6,3,0.6
16.178,2732366.594,-0.00038,-0.00038,0.00076,6,3,0.6
16.197,2732366.613,0.00023,0.00023,0.00015,6,3,0.6
16.219,2732366.632,0.00023,-0.00038,0.00015,6,3,0.6
16.235,2732366.651,0.00023,-0.00038,0.00015,6,3,0.6
16.256,2732366.67,-0.00038,-0.00038,0.00015,6,3,0.6
16.271,2732366.689,0.00023,0.00023,-0.00053,6,3,0.6
16.29,2732366.708,0.00084,-0.00038,-0.00053,6,3,0.6
16.313,2732366.727,0.00023,-0.00038,-0.00053,6,3,0.6
16.328,2732366.746,0.00023,0.00023,0.00069,6,3,0.6
16.348,2732366.765,-0.00038,-0.00031,8e-05,6,3,0.6
16.366,2732366.785,0.00084,0.00031,8e-05,6,3,0.6
16.384,2732366.804,-0.00038,0.00031,-0.00053,6,3,0.6
16.403,2732366.823,0.00084,0.00031,-0.00053,6,3,0.6
16.423,2732366.842,-0.00038,-0.00031,0.0,6,3,0.6
16.442,2732366.861,0.00023,0.00031,-0.00061,6,3,0.6
16.463,2732366.88,-0.00038,0.00031,0.0,6,3,0.6
16.484,2732366.899,-0.00038,-0.00031,0.0,6,3,0.6
16.502,2732366.918,0.00023,-0.00031,-0.00061,6,3,0.6
16.521,2732366.937,-0.00038,-0.00031,-0.00061,6,3,0.6
16.54,2732366.956,-0.00038,0.00031,0.0,6,3,0.6
16.556,2732366.975,-0.00099,0.00031,-0.0,6,3,0.6
16.58,2732366.994,0.00023,0.00031,-0.0,6,3,0.6
16.596,2732367.013,-0.00038,-0.00031,0.00061,6,3,0.6
16.618,2732367.032,0.00084,-0.00031,-0.0,6,3,0.6
16.636,2732367.051,-0.00099,-0.00092,0.0,6,3,0.6
16.653,2732367.07,0.00023,-0.00031,-0.00061,6,3,0.6
16.671,2732367.089,-0.00099,-0.00031,-0.00061,6,3,0.6
16.69,2732367.108,0.00023,-0.00031,-0.00061,6,3,0.6
16.71,2732367.127,-0.00099,-0.00031,0.0,6,3,0.6
16.732,2732367.146,-0.00038,0.00031,0.0,6,3,0.6
16.752,2732367.165,-0.00038,-0.00031,8e-05,6,3,0.6
16.767,2732367.184,-0.00038,-0.00031,-0.00053,6,3,0.6
16.785,2732367.203,-0.00038,-0.00031,8e-05,6,3,0.6
16.804,2732367.222,0.00023,0.00031,8e-05,6,3,0.6
16.826,2732367.241,0.00023,0.00031,8e-05,6,3,0.6
16.842,2732367.26,-0.00038,-0.00031,8e-05,6,3,0.6
16.862,2732367.279,0.00023,0.00038,-0.00053,6,3,0.6
16.884,2732367.298,-0.00038,0.00038,-0.00053,6,3,0.6
16.904,2732367.317,0.00031,0.00038,0.00015,6,3,0.6
16.922,2732367.336,-0.00031,-0.00023,-0.00046,6,3,0.6
16.937,2732367.355,0.00092,-0.00023,0.00015,6,3,0.6
16.958,2732367.374,-0.00092,-0.00023,-0.00046,6,3,0.6
16.977,2732367.393,0.00031,0.00038,-0.00046,6,3,0.6
17.0,2732367.412,-0.00031,0.00038,0.00015,6,3,0.6
17.017,2732367.431,0.00092,0.00038,0.00015,6,3,0.6
17.033,2732367.45,-0.00023,0.00038,0.00015,6,3,0.6
17.055,2732367.469,0.00038,0.00038,-0.00046,6,3,0.6
17.074,2732367.488,-0.00023,0.00038,-0.00046,6,3,0.6
17.096,2732367.507,0.00038,0.00038,0.00015,6,3,0.6
17.108,2732367.526,0.00038,-0.00023,-0.00038,6,3,0.6
17.128,2732367.545,0.00038,0.00038,0.00023,6,3,0.6
17.148,2732367.564,0.00038,0.00038,0.00023,6,3,0.6
17.166,2732367.583,-0.00023,0.00038,-0.00038,6,3,0.6
17.183,2732367.602,-0.00023,-0.00023,0.00023,6,3,0.6
17.202,2732367.621,-0.00023,-0.00023,-0.00038,6,3,0.6
17.224,2732367.64,0.00038,-0.00023,0.00023,6,3,0.6
17.241,2732367.659,-0.00023,-0.00023,0.00023,6,3,0.6
17.262,2732367.679,0.00099,0.00038,0.00023,6,3,0.6
17.281,2732367.698,0.00038,0.00038,-0.00038,6,3,0.6
17.301,2732367.717,0.00038,0.00031,-0.00038,6,3,0.6
17.319,2732367.736,-0.00023,-0.00031,0.00023,6,3,0.6
17.341,2732367.755,0.00099,-0.00031,0.00084,6,3,0.6
17.357,2732367.774,-0.00023,0.00031,0.00023,6,3,0.6
17.378,2732367.793,-0.00023,0.00031,0.00023,6,3,0.6
17.399,2732367.812,-0.00031,-0.00031,0.00023,6,3,0.6
17.418,2732367.831,0.00031,-0.00031,-0.00038,6,3,0.6
17.434,2732367.85,-0.00031,0.00031,0.00023,6,3,0.6
17.453,2732367.869,-0.00031,-0.00031,-0.00038,6,3,0.6
17.47,2732367.888,0.00031,-0.00031,0.00084,6,3,0.6
17.489,2732367.907,-0.00031,-0.00038,0.00023,6,3,0.6
17.527,2732367.926,0.00092,-0.00038,0.00023,6,3,0.6
17.528,2732367.945,-0.00031,-0.00038,0.00023,6,3,0.6
17.546,2732367.964,0.00092,-0.00038,0.00023,6,3,0.6
17.565,2732367.983,-0.00038,-0.00038,0.00023,6,3,0.6
17.583,2732368.002,0.00023,-0.00038,0.00023,6,3,0.6
17.603,2732368.021,-0.00038,0.00023,-0.00099,6,3,0.6
17.622,2732368.04,0.00023,0.00023,-0.00038,6,3,0.6
17.642,2732368.059,0.00023,0.00023,0.00023,6,3,0.6
17.661,2732368.078,0.00023,-0.00038,0.00023,6,3,0.6
17.683,2732368.097,0.00023,-0.00031,0.00023,6,3,0.6
17.704,2732368.116,0.00023,0.00031,0.00023,6,3,0.6
17.722,2732368.135,0.00023,-0.00031,-0.00038,6,3,0.6
17.741,2732368.154,-0.00038,-0.00031,0.00015,6,3,0.6
17.757,2732368.173,0.00023,0.00031,-0.00046,6,3,0.6
17.775,2732368.192,-0.00038,-0.00031,0.00015,6,3,0.6
17.794,2732368.211,0.00084,-0.00031,0.00015,6,3,0.6
17.813,2732368.23,-0.00038,-0.00092,0.00015,6,3,0.6
17.833,2732368.249,0.00023,0.00031,0.00015,6,3,0.6
17.853,2732368.268,-0.00038,-0.00031,0.00015,6,3,0.6
17.872,2732368.287,0.00084,0.00038,0.00076,6,3,0.6
17.889,2732368.306,-0.00038,-0.00023,0.00015,6,3,0.6
17.909,2732368.325,0.00023,0.00038,-0.00046,6,3,0.6
17.928,2732368.344,-0.00038,-0.00023,-0.00046,6,3,0.6
17.946,2732368.363,0.00023,-0.00023,0.00015,6,3,0.6
17.965,2732368.382,0.00023,0.00038,-0.00046,6,3,0.6
17.983,2732368.401,-0.00038,-0.00023,0.00015,6,3,0.6
18.002,2732368.42,0.00015,-0.00023,-0.00046,6,3,0.6
18.024,2732368.439,-0.00046,0.00038,0.00015,6,3,0.6
18.041,2732368.458,-0.00046,0.00038,0.00015,6,3,0.6
18.065,2732368.477,-0.00046,0.00038,-0.00046,6,3,0.6
18.086,2732368.496,0.00015,0.00038,-0.00046,6,3,0.6
18.101,2732368.515,-0.00046,0.00038,-0.00046,6,3,0.6
18.118,2732368.534,0.00015,0.00038,-0.00046,6,3,0.6
18.137,2732368.553,-0.00107,0.00038,-0.00046,6,3,0.6
18.154,2732368.573,0.00076,0.00038,0.00015,6,3,0.6
18.174,2732368.592,-0.00046,0.00038,0.00015,6,3,0.6
18.193,2732368.611,0.00015,0.00038,0.00015,6,3,0.6
18.215,2732368.63,-0.00107,-0.00023,-0.00046,6,3,0.6
18.236,2732368.649,0.00076,0.00038,0.00015,6,3,0.6
18.253,2732368.668,0.00015,-0.00023,0.00076,6,3,0.6
18.273,2732368.687,0.00023,0.00038,0.00015,6,3,0.6
18.287,2732368.706,0.00023,0.00038,0.00015,6,3,0.6
18.308,2732368.725,0.00023,-0.00023,0.00015,6,3,0.6
18.328,2732368.744,0.00084,-0.00023,0.00015,6,3,0.6
18.348,2732368.763,-0.00038,-0.00023,0.00023,6,3,0.6
18.365,2732368.782,0.00023,0.00038,0.00023,6,3,0.6
18.382,2732368.801,-0.00038,-0.00031,0.00023,6,3,0.6
18.401,2732368.82,0.00023,-0.00031,0.00023,6,3,0.6
18.425,2732368.839,-0.00099,-0.00031,0.00023,6,3,0.6
18.441,2732368.858,0.00084,0.00031,-0.00038,6,3,0.6
18.459,2732368.877,-0.00099,0.00031,-0.00038,6,3,0.6
18.48,2732368.896,0.00023,0.00031,0.00023,6,3,0.6
18.5,2732368.915,-0.00038,-0.00031,0.00023,6,3,0.6
18.521,2732368.934,0.00023,-0.00031,0.00023,6,3,0.6
18.54,2732368.953,-0.00038,-0.00031,0.00023,6,3,0.6
18.555,2732368.972,0.00023,-0.00038,0.00023,6,3,0.6
18.575,2732368.991,-0.00038,-0.00038,0.00023,6,3,0.6
18.593,2732369.01,0.00023,0.00023,0.00023,6,3,0.6
18.616,2732369.029,-0.00038,0.00023,0.00023,6,3,0.6
18.634,2732369.048,-0.00038,0.00023,0.00023,6,3,0.6
18.65,2732369.067,0.00023,-0.00038,-0.00046,6,3,0.6
18.669,2732369.086,0.00023,0.00023,0.00015,6,3,0.6
18.687,2732369.105,0.00084,0.00023,-0.00046,6,3,0.6
18.71,2732369.124,-0.00038,-0.00038,-0.00046,6,3,0.6
18.726,2732369.143,0.00023,0.00084,-0.00046,6,3,0.6
18.746,2732369.162,-0.00038,-0.00038,-0.00046,6,3,0.6
18.764,2732369.181,0.00084,0.00023,-0.00046,6,3,0.6
18.781,2732369.2,-0.00038,-0.00099,0.00015,6,3,0.6
18.801,2732369.219,0.00084,0.00031,0.00015,6,3,0.6
18.823,2732369.238,-0.00038,-0.00031,0.00015,6,3,0.6
18.843,2732369.257,0.00023,-0.00031,0.00015,6,3,0.6
18.859,2732369.276,-0.00038,0.00031,0.00015,6,3,0.6
18.879,2732369.295,-0.00038,0.00031,-0.00046,6,3,0.6
18.9,2732369.314,-0.00038,0.00031,0.00015,6,3,0.6
18.92,2732369.333,-0.00099,-0.00031,-0.00046,6,3,0.6
18.939,2732369.352,0.00023,0.00031,-0.00046,6,3,0.6
18.955,2732369.371,0.00023,-0.00031,0.00015,6,3,0.6
18.974,2732369.39,0.00084,0.00031,0.00015,6,3,0.6
18.996,2732369.409,-0.00038,0.00031,-0.00046,6,3,0.6
19.015,2732369.428,0.00084,0.00031,-0.00046,6,3,0.6
19.031,2732369.447,-0.00099,-0.00031,-0.00046,6,3,0.6
19.049,2732369.467,0.00023,0.00031,0.00015,6,3,0.6
19.072,2732369.486,-0.00099,-0.00031,0.00015,6,3,0.6
19.086,2732369.505,0.00084,0.00031,0.00015,6,3,0.6
19.105,2732369.524,-0.00038,0.00031,-0.00046,6,3,0.6
19.125,2732369.543,0.00023,0.00031,0.00015,6,3,0.6
19.144,2732369.562,0.00023,-0.00031,0.00023,6,3,0.6
19.162,2732369.581,-0.00038,0.00031,0.00023,6,3,0.6
19.181,2732369.6,-0.00099,-0.00031,0.00023,6,3,0.6
19.204,2732369.619,0.00023,0.00031,0.00023,6,3,0.6
19.224,2732369.638,-0.00038,0.00031,0.00023,6,3,0.6
19.24,2732369.657,-0.00099,-0.00031,0.00023,6,3,0.6
19.258,2732369.676,0.00023,0.00031,-0.00038,6,3,0.6
19.278,2732369.695,-0.00038,-0.00031,-0.00038,6,3,0.6
19.296,2732369.714,0.00023,0.00031,0.00084,6,3,0.6
19.315,2732369.733,-0.00038,0.00023,0.00023,6,3,0.6
19.337,2732369.752,0.00023,0.00023,-0.00038,6,3,0.6
19.358,2732369.771,-0.00038,0.00023,0.00084,6,3,0.6
19.371,2732369.79,0.00031,0.00023,0.00023,6,3,0.6
19.395,2732369.809,-0.00092,-0.00038,0.00023,6,3,0.6
19.411,2732369.828,-0.00031,0.00023,-0.00038,6,3,0.6
19.433,2732369.847,-0.00031,0.00023,-0.00038,6,3,0.6
19.451,2732369.866,0.00092,-0.00038,-0.00038,6,3,0.6
19.47,2732369.885,0.00031,-0.00038,0.00084,6,3,0.6
19.486,2732369.904,-0.00031,-0.00038,0.00084,6,3,0.6
19.527,2732369.923,0.00031,-0.00038,0.00023,6,3,0.6
19.528,2732369.942,0.00031,-0.00038,0.00023,6,3,0.6
19.543,2732369.961,-0.00031,0.00023,0.00023,6,3,0.6
19.562,2732369.98,-0.00031,0.00023,-0.00038,6,3,0.6
19.581,2732369.999,0.00092,-0.00038,0.00023,6,3,0.6
19.6,2732370.018,-0.00031,-0.00038,0.00023,6,3,0.6
19.621,2732370.037,0.00038,0.00023,0.00015,6,3,0.6
19.638,2732370.056,-0.00023,-0.00038,0.00015,6,3,0.6
19.657,2732370.075,0.00038,0.00023,0.00015,6,3,0.6
19.677,2732370.094,-0.00023,-0.00038,0.00015,6,3,0.6
19.697,2732370.113,0.00038,-0.00038,0.00015,6,3,0.6
19.718,2732370.132,-0.00023,-0.00038,-0.00046,6,3,0.6
19.739,2732370.151,0.00038,-0.00038,0.00015,6,3,0.6
19.757,2732370.17,-0.00023,-0.00038,0.00015,6,3,0.6
19.772,2732370.189,-0.00023,-0.00038,-0.00046,6,3,0.6
19.79,2732370.208,0.00038,0.00023,0.00015,6,3,0.6
19.81,2732370.227,-0.00023,-0.00038,-0.00053,6,3,0.6
19.832,2732370.246,0.00099,0.00023,8e-05,6,3,0.6
19.852,2732370.265,-0.00023,-0.00038,8e-05,6,3,0.6
19.867,2732370.284,0.00099,0.00092,8e-05,6,3,0.6
19.885,2732370.303,-0.00023,-0.00031,8e-05,6,3,0.6
19.906,2732370.322,0.00038,-0.00031,-0.00053,6,3,0.6
19.925,2732370.341,-0.00031,-0.00031,8e-05,6,3,0.6
19.943,2732370.36,0.00031,0.00031,8e-05,6,3,0.6
19.962,2732370.38,-0.00092,-0.00031,8e-05,6,3,0.6
19.984,2732370.399,0.00031,-0.00031,-0.00053,6,3,0.6
20.006,2732370.418,0.00031,-0.00092,8e-05,6,3,0.6
20.023,2732370.437,0.00092,-0.00031,8e-05,6,3,0.6
20.04,2732370.456,0.00031,-0.00031,0.00069,6,3,0.6
20.056,2732370.475,0.00092,0.00038,0.00069,6,3,0.6
20.077,2732370.494,0.00092,-0.00023,-0.00053,6,3,0.6
20.096,2732370.513,0.00031,0.00038,-0.00053,6,3,0.6
20.115,2732370.532,0.00031,-0.00023,8e-05,6,3,0.6
20.134,2732370.551,-0.00031,-0.00023,-0.00053,6,3,0.6
20.152,2732370.57,-0.00038,0.00038,-0.00053,6,3,0.6
20.171,2732370.589,-0.00099,-0.00023,-0.00053,6,3,0.6
20.19,2732370.608,0.00084,0.00038,8e-05,6,3,0.6
20.214,2732370.627,-0.00038,-0.00023,0.00069,6,3,0.6
20.23,2732370.646,0.00084,0.00038,8e-05,6,3,0.6
20.247,2732370.665,-0.00099,-0.00023,8e-05,6,3,0.6
20.266,2732370.684,0.00023,0.00038,8e-05,6,3,0.6
20.285,2732370.703,-0.00038,-0.00015,0.00076,6,3,0.6
20.304,2732370.722,0.00084,0.00046,0.00015,6,3,0.6
20.324,2732370.741,0.00023,-0.00015,0.00076,6,3,0.6
20.342,2732370.76,-0.00046,-0.00015,0.00015,6,3,0.6
20.361,2732370.779,0.00015,-0.00015,0.00015,6,3,0.6
20.386,2732370.798,0.00015,-0.00015,-0.00046,6,3,0.6
20.401,2732370.817,0.00076,0.00046,-0.00046,6,3,0.6
20.425,2732370.836,-0.00046,-0.00015,0.00015,6,3,0.6
20.441,2732370.855,-0.00046,0.00046,-0.00046,6,3,0.6
20.459,2732370.874,-0.00107,-0.00015,8e-05,6,3,0.6
20.476,2732370.893,0.00015,0.00046,8e-05,6,3,0.6
20.496,2732370.912,-0.00046,0.00107,-0.00053,6,3,0.6
20.519,2732370.931,0.00015,-0.00015,8e-05,6,3,0.6
20.535,2732370.95,-0.00107,0.00046,8e-05,6,3,0.6
20.555,2732370.969,0.00076,0.00046,0.00069,6,3,0.6
20.572,2732370.988,-0.00046,-0.00023,8e-05,6,3,0.6
20.589,2732371.007,0.00015,-0.00023,8e-05,6,3,0.6
20.611,2732371.026,-0.00046,0.00038,8e-05,6,3,0.6
20.631,2732371.045,-0.00046,0.00099,-0.00053,6,3,0.6
20.65,2732371.064,-0.00046,0.00038,-0.00053,6,3,0.6
20.665,2732371.083,-0.00046,-0.00023,8e-05,6,3,0.6
20.684,2732371.102,0.00076,0.00038,8e-05,6,3,0.6
20.703,2732371.121,0.00015,0.00038,0.00069,6,3,0.6
20.725,2732371.14,0.00015,-0.00023,8e-05,6,3,0.6
20.742,2732371.159,-0.00038,-0.00023,-0.00053,6,3,0.6
20.761,2732371.178,0.00084,0.00038,8e-05,6,3,0.6
20.782,2732371.197,-0.00038,-0.00023,8e-05,6,3,0.6
20.8,2732371.216,0.00023,0.00092,8e-05,6,3,0.6
20.824,2732371.235,-0.00099,-0.00031,0.00069,6,3,0.6
20.84,2732371.254,0.00084,0.00031,8e-05,6,3,0.6
20.858,2732371.274,-0.00038,-0.00031,8e-05,6,3,0.6
20.876,2732371.293,0.00023,-0.00031,8e-05,6,3,0.6
20.899,2732371.312,-0.00099,0.00031,8e-05,6,3,0.6
20.914,2732371.331,0.00023,-0.00092,-0.00053,6,3,0.6
20.936,2732371.35,0.00023,0.00031,-0.00053,6,3,0.6
20.952,2732371.369,-0.00038,0.00031,8e-05,6,3,0.6
20.973,2732371.388,0.00023,0.00023,8e-05,6,3,0.6
20.988,2732371.407,0.00031,0.00023,8e-05,6,3,0.6
21.011,2732371.426,0.00092,-0.00038,-0.00053,6,3,0.6
21.03,2732371.445,0.00031,0.00023,8e-05,6,3,0.6
21.047,2732371.464,0.00092,-0.00038,0.00069,6,3,0.6
21.069,2732371.483,-0.00092,-0.00038,0.00069,6,3,0.6
21.086,2732371.502,0.00031,-0.00038,0.00069,6,3,0.6
21.103,2732371.521,-0.00031,-0.00038,8e-05,6,3,0.6
21.122,2732371.54,0.00092,0.00023,8e-05,6,3,0.6
21.142,2732371.559,-0.00031,0.00023,8e-05,6,3,0.6
21.16,2732371.578,0.00031,0.00023,8e-05,6,3,0.6
21.18,2732371.597,-0.00038,-0.00038,-0.00053,6,3,0.6
21.199,2732371.616,0.00023,0.00023,-0.00053,6,3,0.6
21.218,2732371.635,-0.00038,-0.00038,-0.00053,6,3,0.6
21.238,2732371.654,-0.00038,0.00023,8e-05,6,3,0.6
21.258,2732371.673,0.00023,0.00023,-0.00053,6,3,0.6
21.275,2732371.692,0.00023,0.00023,8e-05,6,3,0.6
21.295,2732371.711,-0.00038,-0.00038,-0.00053,6,3,0.6
21.312,2732371.73,-0.00099,-0.00038,8e-05,6,3,0.6
21.334,2732371.749,0.00023,0.00084,8e-05,6,3,0.6
21.35,2732371.768,-0.00038,0.00023,8e-05,6,3,0.6
21.373,2732371.787,0.00084,0.00023,8e-05,6,3,0.6
21.388,2732371.806,-0.00038,0.00023,0.00069,6,3,0.6
21.41,2732371.825,0.00023,-0.00031,8e-05,6,3,0.6
21.428,2732371.844,-0.00038,-0.00031,-0.00053,6,3,0.6
21.446,2732371.863,0.00084,-0.00031,-0.00053,6,3,0.6
21.463,2732371.882,-0.00038,-0.00031,8e-05,6,3,0.6
21.483,2732371.901,0.00084,-0.00031,8e-05,6,3,0.6
21.525,2732371.92,-0.00038,0.00031,-0.00053,6,3,0.6
21.526,2732371.939,0.00023,0.00031,-0.00053,6,3,0.6
21.542,2732371.958,-0.00038,-0.00031,-0.00053,6,3,0.6
21.561,2732371.977,-0.00038,-0.00031,8e-05,6,3,0.6
21.58,2732371.996,0.00023,0.00031,-0.00053,6,3,0.6
21.598,2732372.015,0.00023,0.00031,-0.00053,6,3,0.6
21.618,2732372.034,0.00023,-0.00031,8e-05,6,3,0.6
21.638,2732372.053,-0.00038,-0.00031,8e-05,6,3,0.6
21.654,2732372.072,0.00084,0.00031,8e-05,6,3,0.6
21.675,2732372.091,-0.00038,-0.00031,8e-05,6,3,0.6
21.693,2732372.11,0.00084,0.00031,0.00015,6,3,0.6
21.712,2732372.129,-0.00038,-0.00031,0.00015,6,3,0.6
21.734,2732372.148,0.00023,-0.00031,-0.00046,6,3,0.6
21.752,2732372.168,-0.00038,-0.00031,-0.00046,6,3,0.6
21.773,2732372.187,0.00084,0.00031,0.00015,6,3,0.6
21.788,2732372.206,0.00023,0.00031,0.00015,6,3,0.6
21.812,2732372.225,0.00023,0.00031,0.00015,6,3,0.6
21.827,2732372.244,-0.00038,0.00031,0.00015,6,3,0.6
21.846,2732372.263,-0.00038,-0.00031,0.00015,6,3,0.6
21.867,2732372.282,0.00023,-0.00031,0.00015,6,3,0.6
21.883,2732372.301,-0.00038,-0.00031,0.00015,6,3,0.6
21.904,2732372.32,0.00023,-0.00031,0.00023,6,3,0.6
21.92,2732372.339,-0.00038,0.00031,-0.00038,6,3,0.6
21.942,2732372.358,0.00023,0.00031,0.00023,6,3,0.6
21.959,2732372.377,-0.00099,0.00031,0.00023,6,3,0.6
21.983,2732372.396,0.00023,-0.00031,-0.00038,6,3,0.6
21.998,2732372.415,-0.00038,0.00031,0.00023,6,3,0.6
22.019,2732372.434,0.00023,0.00031,-0.00038,6,3,0.6
22.04,2732372.453,-0.00038,-0.00092,-0.00038,6,3,0.6
22.058,2732372.472,0.00076,-0.00031,-0.00038,6,3,0.6
22.074,2732372.491,-0.00046,-0.00092,-0.00038,6,3,0.6
22.093,2732372.51,0.00015,0.00031,0.00023,6,3,0.6
22.112,2732372.529,-0.00038,0.00031,-0.00038,6,3,0.6
22.131,2732372.548,0.00023,0.00031,0.00023,6,3,0.6
22.15,2732372.567,0.00023,-0.00031,0.00084,6,3,0.6
22.169,2732372.586,-0.00038,0.00031,-0.00038,6,3,0.6
22.187,2732372.605,0.00023,-0.00031,0.00023,6,3,0.6
22.207,2732372.624,-0.00038,-0.00031,-0.00038,6,3,0.6
22.227,2732372.643,0.00023,0.00092,-0.00038,6,3,0.6
22.246,2732372.662,-0.00099,-0.00031,0.00023,6,3,0.6
22.268,2732372.681,0.00023,0.00031,0.00084,6,3,0.6
22.283,2732372.7,-0.00099,0.00031,0.00084,6,3,0.6
22.301,2732372.719,0.00084,0.00031,0.00084,6,3,0.6
22.323,2732372.738,-0.00099,-0.00031,0.00023,6,3,0.6
22.343,2732372.757,-0.00038,-0.00031,0.00023,6,3,0.6
22.358,2732372.776,-0.00038,0.00031,0.00023,6,3,0.6
22.378,2732372.795,0.00084,-0.00031,0.00023,6,3,0.6
22.401,2732372.814,-0.00038,0.00031,0.00023,6,3,0.6
22.42,2732372.833,0.00023,0.00031,-0.00038,6,3,0.6
22.439,2732372.852,-0.00038,-0.00031,-0.00038,6,3,0.6
22.456,2732372.871,0.00031,0.00031,0.00023,6,3,0.6
22.474,2732372.89,0.00092,-0.00031,0.00015,6,3,0.6
22.492,2732372.909,-0.00031,0.00031,-0.00046,6,3,0.6
22.515,2732372.928,0.00031,-0.00031,0.00015,6,3,0.6
22.534,2732372.947,-0.00031,0.00031,-0.00046,6,3,0.6
22.554,2732372.966,0.00031,-0.00031,-0.00046,6,3,0.6
22.568,2732372.985,-0.00031,-0.00031,-0.00046,6,3,0.6
22.586,2732373.004,0.00031,0.00031,-0.00046,6,3,0.6
22.606,2732373.023,-0.00092,-0.00031,0.00015,6,3,0.6
22.626,2732373.042,0.00031,-0.00031,0.00015,6,3,0.6
22.644,2732373.062,0.00031,-0.00092,0.00015,6,3,0.6
22.663,2732373.081,0.00031,-0.00031,0.00015,6,3,0.6
22.681,2732373.1,-0.00031,0.00031,0.00015,6,3,0.6
22.707,2732373.119,0.00031,0.00031,0.00015,6,3,0.6
22.725,2732373.138,-0.00031,-0.00031,0.00015,6,3,0.6
22.742,2732373.157,-0.00031,-0.00031,-0.00046,6,3,0.6
22.758,2732373.176,0.00031,0.00031,0.00015,6,3,0.6
22.779,2732373.195,0.00031,-0.00031,0.00015,6,3,0.6
22.801,2732373.214,-0.00031,0.00031,0.00015,6,3,0.6
22.82,2732373.233,-0.00092,0.00031,0.00015,6,3,0.6
22.838,2732373.252,0.00031,0.00031,-0.00046,6,3,0.6
22.854,2732373.271,-0.00031,-0.00031,-0.00046,6,3,0.6
22.872,2732373.29,0.00092,0.00031,0.00015,6,3,0.6
22.892,2732373.309,-0.00092,-0.00031,0.00015,6,3,0.6
22.91,2732373.328,0.00031,-0.00031,0.00015,6,3,0.6
22.933,2732373.347,-0.00031,-0.00031,-0.00046,6,3,0.6
22.949,2732373.366,0.00092,-0.00031,0.00015,6,3,0.6
22.969,2732373.385,-0.00031,-0.00031,0.00015,6,3,0.6
22.986,2732373.404,0.00031,-0.00031,0.00015,6,3,0.6
23.005,2732373.423,0.00031,0.00031,0.00015,6,3,0.6
23.024,2732373.442,-0.00031,-0.00031,-0.00046,6,3,0.6
23.048,2732373.461,-0.00031,-0.00023,0.00015,6,3,0.6
23.062,2732373.48,0.00031,-0.00023,0.00015,6,3,0.6
23.088,2732373.499,0.00092,-0.00023,0.00015,6,3,0.6
23.109,2732373.518,-0.00031,-0.00023,0.00076,6,3,0.6
23.123,2732373.537,0.00092,-0.00023,0.00015,6,3,0.6
23.138,2732373.556,-0.00031,-0.00023,0.00015,6,3,0.6
23.156,2732373.575,0.00092,0.00038,0.00015,6,3,0.6
23.177,2732373.594,-0.00031,-0.00023,0.00015,6,3,0.6
23.195,2732373.613,0.00092,-0.00023,-0.00046,6,3,0.6
23.215,2732373.632,-0.00031,-0.00023,-0.00046,6,3,0.6
23.235,2732373.651,0.00031,0.00038,0.00015,6,3,0.6
23.255,2732373.67,-0.00031,-0.00023,0.00015,6,3,0.6
23.272,2732373.689,0.00031,0.00038,0.00015,6,3,0.6
23.291,2732373.708,-0.00031,0.00038,-0.00046,6,3,0.6
23.313,2732373.727,-0.00031,0.00038,0.00015,6,3,0.6
23.329,2732373.746,0.00031,0.00038,0.00015,6,3,0.6
23.348,2732373.765,0.00023,0.00038,0.00015,6,3,0.6
23.367,2732373.784,-0.00038,0.00046,0.00015,6,3,0.6
23.385,2732373.803,-0.00038,0.00046,0.00015,6,3,0.6
23.405,2732373.822,0.00084,-0.00015,0.00015,6,3,0.6
23.425,2732373.841,-0.00038,0.00046,-0.00046,6,3,0.6
23.444,2732373.86,0.00084,0.00046,0.00015,6,3,0.6
23.462,2732373.879,-0.00038,-0.00015,0.00015,6,3,0.6
23.481,2732373.898,0.00023,0.00046,0.00015,6,3,0.6
23.502,2732373.917,-0.00038,-0.00015,0.00015,6,3,0.6
23.529,2732373.936,0.00084,-0.00023,0.00015,6,3,0.6
23.537,2732373.956,-0.00038,-0.00084,0.00076,6,3,0.6
23.555,2732373.975,0.00084,0.00038,8e-05,6,3,0.6
23.576,2732373.994,-0.00038,-0.00023,8e-05,6,3,0.6
23.595,2732374.013,-0.00038,0.00038,-0.00053,6,3,0.6
23.614,2732374.032,0.00015,0.00038,8e-05,6,3,0.6
23.638,2732374.051,-0.00046,-0.00023,8e-05,6,3,0.6
23.655,2732374.07,0.00015,0.00038,8e-05,6,3,0.6
23.671,2732374.089,-0.00046,-0.00023,8e-05,6,3,0.6
23.691,2732374.108,0.00015,-0.00023,8e-05,6,3,0.6
23.714,2732374.127,-0.00046,0.00038,8e-05,6,3,0.6
23.732,2732374.146,0.00015,-0.00023,-0.00053,6,3,0.6
23.749,2732374.165,-0.00107,-0.00023,-0.00053,6,3,0.6
23.768,2732374.184,0.00015,0.00031,-0.00053,6,3,0.6
23.784,2732374.203,-0.00107,0.00031,8e-05,6,3,0.6
23.805,2732374.222,0.00015,-0.00031,8e-05,6,3,0.6
23.825,2732374.241,-0.00046,0.00031,0.00069,6,3,0.6
23.843,2732374.26,0.00015,0.00031,0.00069,6,3,0.6
23.861,2732374.279,-0.00107,-0.00031,8e-05,6,3,0.6
23.885,2732374.298,0.00023,-0.00031,-0.00053,6,3,0.6
23.904,2732374.317,0.00023,0.00031,-0.00053,6,3,0.6
23.92,2732374.336,-0.00038,0.00031,8e-05,6,3,0.6
23.942,2732374.355,0.00023,-0.00031,0.00069,6,3,0.6
23.955,2732374.374,-0.00038,-0.00031,8e-05,6,3,0.6
23.976,2732374.393,-0.00038,-0.00031,-0.00053,6,3,0.6
23.998,2732374.412,0.00023,-0.00031,8e-05,6,3,0.6
24.017,2732374.431,0.00023,-0.00031,8e-05,6,3,0.6
24.035,2732374.45,-0.00099,-0.00092,8e-05,6,3,0.6
24.051,2732374.469,0.00023,0.00031,8e-05,6,3,0.6
24.074,2732374.488,-0.00038,-0.00031,0.00069,6,3,0.6
24.089,2732374.507,0.00031,-0.00031,8e-05,6,3,0.6
24.109,2732374.526,-0.00031,-0.00031,8e-05,6,3,0.6
24.128,2732374.545,0.00092,0.00031,8e-05,6,3,0.6
24.147,2732374.564,0.00031,-0.00031,8e-05,6,3,0.6
24.166,2732374.583,0.00092,-0.00031,8e-05,6,3,0.6
24.183,2732374.602,-0.00031,-0.00031,-0.00115,6,3,0.6
24.202,2732374.621,-0.00031,0.00031,-0.00053,6,3,0.6
24.224,2732374.64,0.00031,-0.00023,-0.00053,6,3,0.6
24.24,2732374.659,-0.00031,0.00038,8e-05,6,3,0.6
24.265,2732374.678,0.00031,0.00038,8e-05,6,3,0.6
24.284,2732374.697,0.00031,-0.00023,8e-05,6,3,0.6
24.302,2732374.716,0.00038,-0.00023,0.00069,6,3,0.6
24.322,2732374.735,-0.00023,-0.00023,8e-05,6,3,0.6
24.339,2732374.754,0.00038,-0.00023,-0.00053,6,3,0.6
24.357,2732374.773,-0.00031,-0.00023,-0.00053,6,3,0.6
24.376,2732374.792,0.00092,-0.00023,8e-05,6,3,0.6
24.398,2732374.811,-0.00031,-0.00023,0.00069,6,3,0.6
24.413,2732374.83,0.00031,-0.00023,0.00069,6,3,0.6
24.436,2732374.85,-0.00031,0.00038,-0.00053,6,3,0.6
24.451,2732374.869,-0.00031,0.00038,0.00069,6,3,0.6
24.473,2732374.888,-0.00031,0.00046,8e-05,6,3,0.6
24.489,2732374.907,-0.00031,0.00107,-0.00053,6,3,0.6
24.51,2732374.926,-0.00031,0.00046,8e-05,6,3,0.6
24.531,2732374.945,0.00031,-0.00015,8e-05,6,3,0.6
24.55,2732374.964,0.00031,0.00046,-0.00053,6,3,0.6
24.569,2732374.983,-0.00031,-0.00015,8e-05,6,3,0.6
24.585,2732375.002,0.00092,-0.00015,8e-05,6,3,0.6
24.602,2732375.021,0.00031,-0.00015,8e-05,6,3,0.6
24.622,2732375.04,0.00092,-0.00015,-0.00053,6,3,0.6
24.641,2732375.059,-0.00038,-0.00015,8e-05,6,3,0.6
24.662,2732375.078,0.00023,-0.00015,8e-05,6,3,0.6
24.679,2732375.097,-0.00038,0.00046,0.00069,6,3,0.6
24.7,2732375.116,0.00023,0.00046,-0.00053,6,3,0.6
24.724,2732375.135,-0.00038,-0.00076,-0.00053,6,3,0.6
24.74,2732375.154,0.00084,-0.00023,-0.00053,6,3,0.6
24.758,2732375.173,0.00023,-0.00023,8e-05,6,3,0.6
24.774,2732375.192,0.00084,0.00038,8e-05,6,3,0.6
24.797,2732375.211,-0.00038,0.00038,8e-05,6,3,0.6
24.812,2732375.23,-0.00038,0.00099,8e-05,6,3,0.6
24.835,2732375.249,0.00023,-0.00023,-0.00053,6,3,0.6
24.856,2732375.268,-0.00038,-0.00023,8e-05,6,3,0.6
24.873,2732375.287,0.00023,0.00038,0.00069,6,3,0.6
24.888,2732375.306,-0.00038,-0.00023,0.00069,6,3,0.6
24.911,2732375.325,0.00084,0.00038,8e-05,6,3,0.6
24.93,2732375.344,-0.00038,-0.00023,8e-05,6,3,0.6
24.949,2732375.363,0.00023,0.00099,8e-05,6,3,0.6
24.965,2732375.382,-0.00038,-0.00023,-0.00053,6,3,0.6
24.984,2732375.401,0.00023,-0.00023,-0.00115,6,3,0.6
25.003,2732375.42,-0.00038,-0.00023,-0.00053,6,3,0.6
25.023,2732375.439,0.00084,0.00038,8e-05,6,3,0.6
25.042,2732375.458,-0.00038,-0.00023,-0.00053,6,3,0.6
25.06,2732375.477,0.00015,-0.00084,8e-05,6,3,0.6
25.081,2732375.496,0.00015,-0.00023,8e-05,6,3,0.6
25.106,2732375.515,0.00015,-0.00023,8e-05,6,3,0.6
25.117,2732375.534,0.00015,-0.00031,8e-05,6,3,0.6
25.136,2732375.553,0.00015,0.00031,8e-05,6,3,0.6
25.154,2732375.572,0.00015,0.00038,-0.00046,6,3,0.6
25.174,2732375.591,-0.00046,0.00038,-0.00046,6,3,0.6
25.193,2732375.61,0.00015,0.00038,0.00015,6,3,0.6
25.213,2732375.629,-0.00046,0.00038,0.00015,6,3,0.6
25.234,2732375.648,0.00015,0.00038,-0.00046,6,3,0.6
25.25,2732375.667,-0.00046,0.00038,0.00015,6,3,0.6
25.271,2732375.686,0.00015,-0.00023,0.00015,6,3,0.6
25.288,2732375.705,-0.00107,-0.00023,-0.00046,6,3,0.6
25.307,2732375.724,0.00015,-0.00023,-0.00046,6,3,0.6
25.326,2732375.744,0.00015,-0.00023,0.00076,6,3,0.6
25.346,2732375.763,0.00015,0.00031,0.00076,6,3,0.6
25.367,2732375.782,0.00015,-0.00092,0.00015,6,3,0.6
25.381,2732375.801,0.00076,-0.00031,-0.00046,6,3,0.6
25.401,2732375.82,0.00015,0.00031,-0.00046,6,3,0.6
25.421,2732375.839,-0.00046,0.00031,-0.00107,6,3,0.6
25.44,2732375.858,-0.00046,-0.00092,-0.00046,6,3,0.6
25.461,2732375.877,-0.00046,-0.00092,0.00015,6,3,0.6
25.479,2732375.896,0.00076,-0.00031,0.00015,6,3,0.6
25.499,2732375.915,-0.00046,-0.00031,-0.00046,6,3,0.6
25.516,2732375.934,0.00015,-0.00084,0.00015,6,3,0.6
25.535,2732375.953,-0.00046,-0.00023,0.00015,6,3,0.6
25.554,2732375.972,0.00015,0.00038,0.00023,6,3,0.6
25.574,2732375.991,0.00015,-0.00023,0.00023,6,3,0.6
25.593,2732376.01,0.00015,-0.00023,-0.00038,6,3,0.6
25.612,2732376.029,0.00015,0.00038,-0.00038,6,3,0.6
25.632,2732376.048,0.00015,0.00038,-0.00038,6,3,0.6
25.651,2732376.067,-0.00046,-0.00023,0.00023,6,3,0.6
25.668,2732376.086,0.00076,-0.00023,0.00023,6,3,0.6
25.687,2732376.105,0.00015,0.00038,0.00084,6,3,0.6
25.706,2732376.124,-0.00046,0.00038,0.00023,6,3,0.6
25.726,2732376.143,0.00015,-0.00023,-0.00038,6,3,0.6
25.745,2732376.162,-0.00046,-0.00023,-0.00038,6,3,0.6
25.763,2732376.181,0.00076,-0.00023,0.00023,6,3,0.6
25.781,2732376.2,-0.00046,-0.00015,0.00023,6,3,0.6
25.802,2732376.219,0.00076,0.00046,0.00023,6,3,0.6
25.823,2732376.238,-0.00107,0.00046,0.00023,6,3,0.6
25.84,2732376.257,0.00015,0.00107,0.00023,6,3,0.6
25.858,2732376.276,-0.00046,0.00046,-0.00038,6,3,0.6
25.879,2732376.295,0.00076,0.00046,-0.00038,6,3,0.6
25.897,2732376.314,-0.00046,-0.00076,0.00023,6,3,0.6
25.918,2732376.333,0.00015,0.00046,-0.00038,6,3,0.6
25.936,2732376.352,-0.00107,0.00046,-0.00038,6,3,0.6
25.954,2732376.371,-0.00046,0.00046,0.00023,6,3,0.6
25.973,2732376.39,0.00015,0.00046,0.00023,6,3,0.6
25.992,2732376.409,0.00015,-0.00015,0.00023,6,3,0.6
26.015,2732376.428,-0.00046,-0.00015,0.00023,6,3,0.6
26.033,2732376.447,0.00015,-0.00015,-0.00099,6,3,0.6
26.055,2732376.466,0.00015,0.00046,-0.00038,6,3,0.6
26.067,2732376.485,-0.00107,-0.00015,0.00023,6,3,0.6
26.089,2732376.504,0.00076,-0.00015,0.00023,6,3,0.6
26.109,2732376.523,-0.00046,-0.00015,0.00023,6,3,0.6
26.126,2732376.542,0.00076,0.00038,0.00023,6,3,0.6
26.144,2732376.561,-0.00046,0.00038,0.00023,6,3,0.6
26.163,2732376.58,0.00015,-0.00023,0.00084,6,3,0.6
26.181,2732376.599,-0.00046,-0.00023,0.00023,6,3,0.6
26.2,2732376.618,0.00015,0.00038,0.00023,6,3,0.6
26.224,2732376.638,-0.00107,0.00038,0.00023,6,3,0.6
26.239,2732376.657,0.00076,0.00038,-0.00038,6,3,0.6
26.258,2732376.676,0.00084,-0.00023,-0.00038,6,3,0.6
26.279,2732376.695,0.00023,-0.00031,0.00023,6,3,0.6
26.297,2732376.714,-0.00038,-0.00031,0.00023,6,3,0.6
26.316,2732376.733,-0.00038,0.00031,0.00023,6,3,0.6
26.338,2732376.752,0.00023,-0.00031,-0.00038,6,3,0.6
26.354,2732376.771,-0.00038,0.00031,0.00023,6,3,0.6
26.372,2732376.79,-0.00038,-0.00031,0.00023,6,3,0.6
26.392,2732376.809,-0.00038,-0.00031,0.00023,6,3,0.6
26.409,2732376.828,0.00084,0.00031,0.00023,6,3,0.6
26.429,2732376.847,-0.00038,-0.00031,0.00023,6,3,0.6
26.448,2732376.866,0.00023,0.00031,0.00023,6,3,0.6
26.467,2732376.885,-0.00038,-0.00031,0.00023,6,3,0.6
26.485,2732376.904,0.00084,0.00031,0.00015,6,3,0.6
26.504,2732376.923,-0.00038,0.00031,0.00015,6,3,0.6
26.524,2732376.942,0.00023,-0.00031,0.00015,6,3,0.6
26.543,2732376.961,-0.00038,0.00031,-0.00046,6,3,0.6
26.562,2732376.98,-0.00038,0.00031,-0.00046,6,3,0.6
26.585,2732376.999,-0.00038,-0.00031,0.00015,6,3,0.6
26.605,2732377.018,-0.00038,0.00092,0.00015,6,3,0.6
26.626,2732377.037,0.00023,-0.00031,0.00015,6,3,0.6
26.641,2732377.056,-0.00038,-0.00031,0.00015,6,3,0.6
26.658,2732377.075,0.00023,0.00031,0.00015,6,3,0.6
26.676,2732377.094,-0.00038,-0.00031,0.00015,6,3,0.6
26.7,2732377.113,0.00084,0.00031,0.00015,6,3,0.6
26.715,2732377.132,-0.00038,-0.00031,0.00015,6,3,0.6
26.738,2732377.151,0.00084,-0.00031,0.00015,6,3,0.6
26.755,2732377.17,-0.00099,-0.00031,0.00015,6,3,0.6
26.771,2732377.189,0.00023,0.00031,0.00015,6,3,0.6
26.79,2732377.208,-0.00038,-0.00031,0.00076,6,3,0.6
26.809,2732377.227,0.00084,-0.00031,-0.00053,6,3,0.6
26.833,2732377.246,0.00023,-0.00031,-0.00053,6,3,0.6
26.853,2732377.265,0.00023,0.00031,8e-05,6,3,0.6
26.869,2732377.284,-0.00038,0.00031,8e-05,6,3,0.6
26.885,2732377.303,-0.00038,0.00031,8e-05,6,3,0.6
26.903,2732377.322,0.00023,0.00031,8e-05,6,3,0.6
26.925,2732377.341,-0.00038,-0.00031,8e-05,6,3,0.6
26.943,2732377.36,0.00023,-0.00031,-0.00053,6,3,0.6
26.962,2732377.379,-0.00038,-0.00031,-0.00053,6,3,0.6
26.982,2732377.398,0.00023,0.00031,8e-05,6,3,0.6
27.006,2732377.417,-0.00038,-0.00031,8e-05,6,3,0.6
27.023,2732377.436,0.00084,0.00031,8e-05,6,3,0.6
27.04,2732377.455,-0.00038,-0.00031,8e-05,6,3,0.6
27.058,2732377.474,0.00084,-0.00031,-0.00053,6,3,0.6
27.076,2732377.493,-0.00038,-0.00031,8e-05,6,3,0.6
27.095,2732377.512,0.00023,-0.00031,8e-05,6,3,0.6
27.114,2732377.532,-0.00038,-0.00031,-0.00053,6,3,0.6
27.134,2732377.551,0.00023,0.00031,-0.00053,6,3,0.6
27.152,2732377.57,-0.00038,-0.00031,8e-05,6,3,0.6
27.17,2732377.589,-0.00038,0.00031,8e-05,6,3,0.6
27.19,2732377.608,-0.00038,-0.00031,8e-05,6,3,0.6
27.209,2732377.627,-0.00038,-0.00031,8e-05,6,3,0.6
27.23,2732377.646,0.00023,-0.00031,8e-05,6,3,0.6
27.247,2732377.665,-0.00038,-0.00031,8e-05,6,3,0.6
27.267,2732377.684,0.00084,-0.00031,-0.00053,6,3,0.6
27.284,2732377.703,-0.00038,0.00031,-0.00053,6,3,0.6
27.307,2732377.722,0.00023,-0.00023,-0.00053,6,3,0.6
27.323,2732377.741,-0.00038,0.00038,8e-05,6,3,0.6
27.342,2732377.76,0.00023,0.00038,-0.00053,6,3,0.6
27.36,2732377.779,-0.00038,0.00038,0.00015,6,3,0.6
27.381,2732377.798,0.00084,-0.00023,0.00076,6,3,0.6
27.4,2732377.817,0.00023,-0.00023,0.00015,6,3,0.6
27.421,2732377.836,0.00023,-0.00023,0.00015,6,3,0.6
27.44,2732377.855,-0.00038,-0.00023,0.00015,6,3,0.6
27.458,2732377.874,0.00023,-0.00023,-0.00046,6,3,0.6
27.476,2732377.893,0.00023,0.00038,-0.00046,6,3,0.6
27.503,2732377.912,0.00023,-0.00023,0.00015,6,3,0.6
27.527,2732377.931,-0.00038,0.00038,-0.00046,6,3,0.6
27.533,2732377.95,-0.00038,0.00038,0.00015,6,3,0.6
27.551,2732377.969,0.00023,-0.00023,0.00015,6,3,0.6
27.571,2732377.988,-0.00038,0.00038,-0.00046,6,3,0.6
27.589,2732378.007,0.00084,0.00038,-0.00046,6,3,0.6
27.609,2732378.026,-0.00038,0.00038,0.00015,6,3,0.6
27.628,2732378.045,-0.00038,-0.00023,0.00015,6,3,0.6
27.647,2732378.064,-0.00038,-0.00084,-0.00046,6,3,0.6
27.665,2732378.083,0.00023,0.00038,-0.00046,6,3,0.6
27.683,2732378.102,-0.00038,-0.00023,0.00015,6,3,0.6
27.706,2732378.121,0.00023,-0.00023,0.00023,6,3,0.6
27.725,2732378.14,-0.00038,0.00038,0.00023,6,3,0.6
27.741,2732378.159,0.00084,0.00038,0.00023,6,3,0.6
27.761,2732378.178,0.00023,-0.00023,-0.00038,6,3,0.6
27.785,2732378.197,-0.00038,0.00038,-0.00038,6,3,0.6
27.803,2732378.216,0.00023,0.00038,-0.00038,6,3,0.6
27.822,2732378.235,-0.00099,0.00038,-0.00099,6,3,0.6
27.841,2732378.254,0.00023,0.00038,-0.00038,6,3,0.6
27.855,2732378.273,-0.00038,-0.00023,0.00023,6,3,0.6
27.875,2732378.292,0.00023,0.00038,0.00023,6,3,0.6
27.894,2732378.311,0.00023,-0.00023,0.00023,6,3,0.6
27.913,2732378.33,0.00084,-0.00023,0.00023,6,3,0.6
27.933,2732378.349,-0.00038,-0.00023,0.00084,6,3,0.6
27.952,2732378.368,0.00023,0.00038,0.00023,6,3,0.6
27.971,2732378.387,0.00023,-0.00023,0.00023,6,3,0.6
27.988,2732378.406,0.00023,0.00038,0.00023,6,3,0.6
28.009,2732378.425,-0.00038,-0.00031,0.00023,6,3,0.6
28.032,2732378.445,0.00023,-0.00031,0.00023,6,3,0.6
28.05,2732378.464,-0.00038,-0.00031,-0.00038,6,3,0.6
28.065,2732378.483,-0.00038,0.00031,-0.00038,6,3,0.6
28.089,2732378.502,0.00023,0.00031,0.00023,6,3,0.6
28.106,2732378.521,0.00023,-0.00031,0.00023,6,3,0.6
28.125,2732378.54,0.00084,-0.00031,0.00023,6,3,0.6
28.141,2732378.559,-0.00038,-0.00031,0.00023,6,3,0.6
28.161,2732378.578,0.00023,0.00031,0.00023,6,3,0.6
28.181,2732378.597,-0.00038,0.00031,0.00023,6,3,0.6
28.198,2732378.616,0.00145,-0.00031,0.00023,6,3,0.6
28.221,2732378.635,-0.00038,-0.00031,-0.00038,6,3,0.6
28.239,2732378.654,0.00084,0.00031,-0.00038,6,3,0.6
28.257,2732378.673,0.00023,-0.00031,0.00023,6,3,0.6
28.274,2732378.692,0.00023,0.00031,0.00084,6,3,0.6
28.297,2732378.711,-0.00099,-0.00031,0.00023,6,3,0.6
28.313,2732378.73,0.00023,-0.00031,0.00023,6,3,0.6
28.336,2732378.749,-0.00038,0.00031,0.00084,6,3,0.6
28.355,2732378.768,-0.00038,0.00031,0.00084,6,3,0.6
28.374,2732378.787,0.00023,-0.00031,0.00023,6,3,0.6
28.388,2732378.806,-0.00038,-0.00031,0.00023,6,3,0.6
28.409,2732378.825,0.00015,0.00031,-0.00046,6,3,0.6
28.427,2732378.844,0.00015,-0.00031,-0.00046,6,3,0.6
28.446,2732378.863,0.00076,0.00031,0.00015,6,3,0.6
28.464,2732378.882,-0.00046,0.00031,0.00015,6,3,0.6
28.485,2732378.901,0.00015,0.00031,0.00015,6,3,0.6
28.506,2732378.92,-0.00046,-0.00031,0.00015,6,3,0.6
28.523,2732378.939,0.00015,-0.00031,0.00015,6,3,0.6
28.54,2732378.958,-0.00107,0.00031,-0.00046,6,3,0.6
28.56,2732378.977,0.00015,0.00031,8e-05,6,3,0.6
28.583,2732378.996,-0.00107,0.00031,8e-05,6,3,0.6
28.603,2732379.015,0.00015,0.00031,-0.00053,6,3,0.6
28.617,2732379.034,-0.00046,0.00031,-0.00053,6,3,0.6
28.641,2732379.053,0.00015,0.00031,-0.00053,6,3,0.6
28.654,2732379.072,0.00015,-0.00031,8e-05,6,3,0.6
28.674,2732379.091,0.00015,-0.00031,8e-05,6,3,0.6
28.692,2732379.11,0.00015,0.00031,-0.00053,6,3,0.6
28.712,2732379.129,-0.00046,0.00031,-0.00053,6,3,0.6
28.731,2732379.148,0.00076,0.00031,-0.00053,6,3,0.6
28.751,2732379.167,0.00015,-0.00092,-0.00053,6,3,0.6
28.769,2732379.186,-0.00046,-0.00031,8e-05,6,3,0.6
28.788,2732379.205,-0.00107,-0.00031,8e-05,6,3,0.6
28.807,2732379.224,0.00023,0.00031,8e-05,6,3,0.6
28.829,2732379.243,0.00023,0.00031,-0.00053,6,3,0.6
28.845,2732379.262,0.00023,0.00031,-0.00053,6,3,0.6
28.865,2732379.281,-0.00099,-0.00031,8e-05,6,3,0.6
28.885,2732379.3,-0.00038,-0.00031,8e-05,6,3,0.6
28.906,2732379.319,-0.00038,0.00031,8e-05,6,3,0.6
28.923,2732379.339,0.00023,0.00031,0.00015,6,3,0.6
28.941,2732379.358,-0.00038,0.00031,-0.00046,6,3,0.6
28.958,2732379.377,0.00023,-0.00031,-0.00046,6,3,0.6
28.983,2732379.396,0.00084,-0.00092,-0.00046,6,3,0.6
29.0,2732379.415,0.00023,-0.00031,0.00015,6,3,0.6
29.021,2732379.434,0.00023,0.00023,0.00015,6,3,0.6
29.039,2732379.453,-0.00038,0.00023,0.00015,6,3,0.6
29.056,2732379.472,0.00023,-0.00038,0.00015,6,3,0.6
29.073,2732379.491,-0.00031,-0.00038,0.00023,6,3,0.6
29.092,2732379.51,0.00092,0.00023,0.00084,6,3,0.6
29.112,2732379.529,-0.00031,-0.00038,0.00023,6,3,0.6
29.132,2732379.548,0.00031,0.00023,0.00023,6,3,0.6
29.149,2732379.567,-0.00031,-0.00031,0.00023,6,3,0.6
29.168,2732379.586,0.00031,0.00092,-0.00038,6,3,0.6
29.187,2732379.605,-0.00031,-0.00031,-0.00038,6,3,0.6
29.206,2732379.624,0.00031,0.00031,-0.00038,6,3,0.6
29.226,2732379.643,-0.00031,0.00031,0.00023,6,3,0.6
29.245,2732379.662,0.00092,0.00031,0.00084,6,3,0.6
29.263,2732379.681,0.00031,-0.00031,0.00023,6,3,0.6
29.285,2732379.7,-0.00031,-0.00031,0.00023,6,3,0.6
29.303,2732379.719,0.00031,0.00031,0.00023,6,3,0.6
29.322,2732379.738,0.00023,-0.00031,0.00023,6,3,0.6
29.341,2732379.757,0.00084,-0.00031,0.00023,6,3,0.6
29.358,2732379.776,-0.00099,-0.00031,0.00023,6,3,0.6
29.378,2732379.795,0.00084,0.00031,-0.00038,6,3,0.6
29.397,2732379.814,-0.00038,-0.00031,-0.00038,6,3,0.6
29.416,2732379.833,0.00084,-0.00031,0.00084,6,3,0.6
29.435,2732379.852,-0.00038,-0.00031,0.00023,6,3,0.6
29.454,2732379.871,0.00084,-0.00031,0.00023,6,3,0.6
29.472,2732379.89,-0.00099,0.00031,0.00023,6,3,0.6
29.492,2732379.909,-0.00038,0.00031,0.00015,6,3,0.6
29.528,2732379.928,0.00023,0.00031,0.00015,6,3,0.6
29.529,2732379.947,0.00023,-0.00031,0.00015,6,3,0.6
29.548,2732379.966,-0.00038,-0.00031,-0.00046,6,3,0.6
29.566,2732379.985,-0.00038,0.00031,-0.00046,6,3,0.6
29.586,2732380.004,0.00023,-0.00031,0.00015,6,3,0.6
29.605,2732380.023,-0.00046,-0.00031,0.00015,6,3,0.6
29.626,2732380.042,0.00015,0.00031,0.00015,6,3,0.6
29.644,2732380.061,-0.00046,-0.00031,0.00015,6,3,0.6
29.663,2732380.08,0.00015,-0.00031,8e-05,6,3,0.6
29.682,2732380.099,-0.00107,-0.00092,0.00069,6,3,0.6
29.702,2732380.118,0.00015,0.00031,0.00069,6,3,0.6
29.723,2732380.137,-0.00046,-0.00031,0.00069,6,3,0.6
29.741,2732380.156,0.00015,0.00031,8e-05,6,3,0.6
29.758,2732380.175,-0.00046,0.00031,8e-05,6,3,0.6
29.778,2732380.194,0.00015,-0.00031,8e-05,6,3,0.6
29.801,2732380.213,-0.00046,-0.00031,8e-05,6,3,0.6
29.816,2732380.233,0.00015,0.00038,8e-05,6,3,0.6
29.839,2732380.252,0.00023,0.00038,8e-05,6,3,0.6
29.854,2732380.271,0.00023,-0.00023,8e-05,6,3,0.6
29.873,2732380.29,0.00023,-0.00023,0.00069,6,3,0.6
29.891,2732380.309,0.00023,0.00038,8e-05,6,3,0.6
29.91,2732380.328,0.00084,0.00038,8e-05,6,3,0.6
29.929,2732380.347,0.00023,-0.00023,8e-05,6,3,0.6
29.949,2732380.366,0.00084,-0.00023,-0.00061,6,3,0.6
29.971,2732380.385,-0.00099,0.00038,-0.00061,6,3,0.6
29.986,2732380.404,0.00084,-0.00023,0.0,6,3,0.6
30.005,2732380.423,-0.00038,-0.00084,0.00061,6,3,0.6
30.025,2732380.442,0.00023,0.00038,-0.00061,6,3,0.6
30.048,2732380.461,-0.00099,0.00038,-0.00061,6,3,0.6
30.062,2732380.48,0.00023,0.00038,-0.0,6,3,0.6
30.082,2732380.499,0.00023,-0.00023,-0.0,6,3,0.6
30.107,2732380.518,0.00023,0.00038,-0.00061,6,3,0.6
30.12,2732380.537,-0.00038,0.00038,-0.00061,6,3,0.6
30.14,2732380.556,-0.00038,0.00038,-0.0,6,3,0.6
30.156,2732380.575,0.00023,-0.00023,-0.0,6,3,0.6
30.175,2732380.594,0.00023,-0.00023,-0.0,6,3,0.6
30.196,2732380.613,0.00084,-0.00023,0.00061,6,3,0.6
30.215,2732380.632,-0.00099,-0.00023,0.00061,6,3,0.6
30.237,2732380.651,0.00084,0.00038,-0.00061,6,3,0.6
30.255,2732380.67,-0.00038,-0.00023,-0.0,6,3,0.6
30.272,2732380.689,0.00084,-0.00023,-0.0,6,3,0.6
30.29,2732380.708,-0.00038,0.00038,-0.0,6,3,0.6
30.31,2732380.727,0.00084,0.00099,-0.0,6,3,0.6
30.331,2732380.746,-0.00038,0.00099,0.0,6,3,0.6
30.352,2732380.765,0.00023,0.00038,-0.00061,6,3,0.6
30.367,2732380.784,-0.00038,0.00038,0.0,6,3,0.6
30.388,2732380.803,-0.00046,-0.00023,-0.00061,6,3,0.6
30.406,2732380.822,0.00015,0.00038,0.0,6,3,0.6
30.425,2732380.841,0.00015,0.00038,0.00061,6,3,0.6
30.443,2732380.86,0.00015,0.00031,0.0,6,3,0.6
30.463,2732380.879,-0.00046,0.00031,8e-05,6,3,0.6
30.481,2732380.898,-0.00046,0.00031,8e-05,6,3,0.6
30.505,2732380.917,-0.00046,-0.00031,8e-05,6,3,0.6
30.524,2732380.936,0.00015,0.00031,8e-05,6,3,0.6
30.541,2732380.955,-0.00107,-0.00031,8e-05,6,3,0.6
30.556,2732380.974,0.00015,-0.00031,8e-05,6,3,0.6
30.58,2732380.993,-0.00046,-0.00031,-0.00053,6,3,0.6
30.595,2732381.012,0.00015,0.00031,8e-05,6,3,0.6
30.614,2732381.031,-0.00046,-0.00092,-0.00053,6,3,0.6
30.632,2732381.05,0.00015,0.00023,8e-05,6,3,0.6
30.655,2732381.069,0.00015,-0.00038,8e-05,6,3,0.6
30.67,2732381.088,0.00015,0.00023,8e-05,6,3,0.6
30.69,2732381.107,0.00015,-0.00038,-0.00053,6,3,0.6
30.71,2732381.127,-0.00038,-0.00038,8e-05,6,3,0.6
30.731,2732381.146,-0.00038,0.00023,8e-05,6,3,0.6
30.747,2732381.165,-0.00038,-0.00038,8e-05,6,3,0.6
30.77,2732381.184,0.00023,0.00023,8e-05,6,3,0.6
30.784,2732381.203,-0.00038,-0.00038,8e-05,6,3,0.6
30.804,2732381.222,0.00023,-0.00038,-0.00053,6,3,0.6
30.823,2732381.241,-0.00099,0.00023,-0.00053,6,3,0.6
30.843,2732381.26,0.00023,0.00023,8e-05,6,3,0.6
30.861,2732381.279,-0.00099,0.00023,0.00069,6,3,0.6
30.882,2732381.298,-0.00038,0.00023,-0.00053,6,3,0.6
30.901,2732381.317,0.00023,0.00023,8e-05,6,3,0.6
30.918,2732381.336,0.00084,0.00023,8e-05,6,3,0.6
30.941,2732381.355,-0.00038,-0.00038,8e-05,6,3,0.6
30.955,2732381.374,0.00092,0.00023,0.00069,6,3,0.6
30.975,2732381.393,0.00031,-0.00038,8e-05,6,3,0.6
30.998,2732381.412,0.00031,0.00023,8e-05,6,3,0.6
31.018,2732381.431,-0.00031,-0.00038,-0.00053,6,3,0.6
31.033,2732381.45,-0.00031,0.00023,-0.00053,6,3,0.6
31.054,2732381.469,0.00031,-0.00038,-0.00053,6,3,0.6
31.07,2732381.488,-0.00031,-0.00038,-0.00053,6,3,0.6
31.09,2732381.507,0.00031,0.00031,8e-05,6,3,0.6
31.108,2732381.526,0.00031,-0.00031,-0.00053,6,3,0.6
31.128,2732381.545,0.00031,-0.00031,-0.00053,6,3,0.6
31.146,2732381.564,-0.00092,0.00031,8e-05,6,3,0.6
31.165,2732381.583,0.00031,0.00031,8e-05,6,3,0.6
31.183,2732381.602,-0.00092,0.00031,0.00015,6,3,0.6
31.203,2732381.621,0.00031,-0.00031,0.00015,6,3,0.6
31.223,2732381.64,-0.00031,-0.00031,-0.00107,6,3,0.6
31.24,2732381.659,0.00031,-0.00031,-0.00046,6,3,0.6
31.265,2732381.678,0.00031,-0.00031,0.00015,6,3,0.6
31.282,2732381.697,0.00031,-0.00031,-0.00046,6,3,0.6
31.3,2732381.716,-0.00031,-0.00031,-0.00046,6,3,0.6
31.318,2732381.735,0.00031,-0.00031,-0.00046,6,3,0.6
31.341,2732381.754,0.00092,-0.00031,0.00015,6,3,0.6
31.357,2732381.773,-0.00031,0.00031,0.00015,6,3,0.6
31.375,2732381.792,0.00092,-0.00031,0.00015,6,3,0.6
31.394,2732381.811,-0.00031,0.00031,-0.00046,6,3,0.6
31.414,2732381.83,0.00092,-0.00092,0.00015,6,3,0.6
31.436,2732381.849,-0.00092,0.00031,0.00023,6,3,0.6
31.451,2732381.868,0.00092,-0.00031,0.00023,6,3,0.6
31.469,2732381.887,-0.00031,-0.00031,-0.00038,6,3,0.6
31.489,2732381.906,0.00092,0.00031,0.00023,6,3,0.6
31.528,2732381.925,-0.00031,0.00031,0.00023,6,3,0.6
31.528,2732381.944,0.00092,-0.00031,0.00023,6,3,0.6
31.546,2732381.963,-0.00038,-0.00092,0.00084,6,3,0.6
31.564,2732381.982,-0.00038,0.00031,0.00145,6,3,0.6
31.583,2732382.001,-0.00099,0.00038,0.00084,6,3,0.6
31.602,2732382.021,0.00023,-0.00023,0.00023,6,3,0.6
31.625,2732382.04,0.00023,-0.00023,0.00023,6,3,0.6
31.64,2732382.059,-0.00038,-0.00023,0.00023,6,3,0.6
31.66,2732382.078,-0.00038,0.00038,-0.00038,6,3,0.6
31.679,2732382.097,-0.00038,-0.00023,0.00023,6,3,0.6
31.698,2732382.116,0.00084,0.00038,-0.00038,6,3,0.6
31.718,2732382.135,-0.00099,-0.00023,-0.00038,6,3,0.6
31.735,2732382.154,0.00023,-0.00023,0.00023,6,3,0.6
31.753,2732382.173,-0.00099,-0.00023,0.00023,6,3,0.6
31.776,2732382.192,0.00023,0.00038,0.00023,6,3,0.6
31.793,2732382.211,-0.00038,0.00038,-0.00038,6,3,0.6
31.812,2732382.23,0.00023,-0.00015,-0.00038,6,3,0.6
31.833,2732382.249,0.00023,-0.00015,-0.00038,6,3,0.6
31.849,2732382.268,0.00023,0.00046,-0.00046,6,3,0.6
31.87,2732382.287,-0.00099,-0.00015,0.00015,6,3,0.6
31.887,2732382.306,-0.00038,0.00046,0.00015,6,3,0.6
31.908,2732382.325,0.00023,-0.00015,0.00015,6,3,0.6
31.926,2732382.344,0.00023,-0.00015,0.00015,6,3,0.6
31.945,2732382.363,0.00084,-0.00015,-0.00046,6,3,0.6
31.963,2732382.382,-0.00038,-0.00076,0.00015,6,3,0.6
31.982,2732382.401,0.00084,-0.00015,0.00015,6,3,0.6
32.001,2732382.42,-0.00038,0.00046,0.00015,6,3,0.6
32.02,2732382.439,0.00023,0.00046,-0.00046,6,3,0.6
32.043,2732382.458,-0.00038,-0.00076,8e-05,6,3,0.6
32.059,2732382.477,0.00023,0.00046,8e-05,6,3,0.6
32.078,2732382.496,-0.00031,-0.00015,8e-05,6,3,0.6
32.097,2732382.515,0.00092,-0.00015,8e-05,6,3,0.6
32.116,2732382.534,-0.00031,-0.00015,8e-05,6,3,0.6
32.135,2732382.553,0.00031,0.00046,8e-05,6,3,0.6
32.153,2732382.572,-0.00031,-0.00015,8e-05,6,3,0.6
32.173,2732382.591,0.00031,-0.00015,8e-05,6,3,0.6
32.193,2732382.61,0.00031,-0.00015,0.00015,6,3,0.6
32.212,2732382.629,-0.00031,-0.00015,0.00015,6,3,0.6
32.23,2732382.648,-0.00031,0.00046,0.00015,6,3,0.6
32.249,2732382.667,-0.00031,-0.00015,0.00015,6,3,0.6
32.271,2732382.686,0.00092,0.00046,0.00015,6,3,0.6
32.288,2732382.705,-0.00031,-0.00015,-0.00046,6,3,0.6
32.306,2732382.724,0.00031,-0.00015,0.00015,6,3,0.6
32.325,2732382.743,-0.00031,-0.00015,0.00015,6,3,0.6
32.345,2732382.762,0.00031,0.00046,-0.00046,6,3,0.6
32.363,2732382.781,-0.00092,-0.00015,-0.00046,6,3,0.6
32.382,2732382.8,0.00031,-0.00076,0.00015,6,3,0.6
32.401,2732382.819,-0.00092,-0.00015,0.00076,6,3,0.6
32.42,2732382.838,0.00023,-0.00015,0.00015,6,3,0.6
32.44,2732382.857,-0.00038,-0.00015,0.00015,6,3,0.6
32.458,2732382.876,0.00023,0.00046,0.00015,6,3,0.6
32.481,2732382.895,-0.00038,0.00046,0.00015,6,3,0.6
32.498,2732382.915,-0.00038,0.00046,-0.00046,6,3,0.6
32.515,2732382.934,0.00023,0.00046,0.00015,6,3,0.6
32.539,2732382.953,0.00023,0.00046,-0.00046,6,3,0.6
32.553,2732382.972,0.00084,0.00046,0.00076,6,3,0.6
32.572,2732382.991,-0.00038,-0.00015,0.00015,6,3,0.6
32.592,2732383.01,0.00023,-0.00015,0.00076,6,3,0.6
32.61,2732383.029,-0.00038,-0.00015,8e-05,6,3,0.6
32.632,2732383.048,0.00023,-0.00015,8e-05,6,3,0.6
32.651,2732383.067,-0.00092,0.00046,8e-05,6,3,0.6
32.668,2732383.086,0.00031,0.00046,8e-05,6,3,0.6
32.686,2732383.105,-0.00031,0.00046,-0.00053,6,3,0.6
32.706,2732383.124,0.00092,-0.00015,8e-05,6,3,0.6
32.724,2732383.143,-0.00031,0.00046,-0.00053,6,3,0.6
32.745,2732383.162,0.00031,0.00046,8e-05,6,3,0.6
32.763,2732383.181,0.00031,-0.00015,8e-05,6,3,0.6
32.781,2732383.2,-0.00031,-0.00015,-0.00053,6,3,0.6
32.8,2732383.219,-0.00031,-0.00015,-0.00115,6,3,0.6
32.821,2732383.238,-0.00031,-0.00015,-0.00053,6,3,0.6
32.839,2732383.257,0.00031,0.00038,-0.00053,6,3,0.6
32.86,2732383.276,-0.00031,0.00038,-0.00053,6,3,0.6
32.878,2732383.295,0.00092,0.00038,8e-05,6,3,0.6
32.899,2732383.314,-0.00031,-0.00023,8e-05,6,3,0.6
32.916,2732383.333,0.00092,-0.00023,8e-05,6,3,0.6
32.935,2732383.352,-0.00031,-0.00023,-0.00053,6,3,0.6
32.953,2732383.371,0.00092,0.00038,-0.00053,6,3,0.6
32.972,2732383.39,-0.00092,-0.00023,-0.00053,6,3,0.6
32.991,2732383.409,0.00031,0.00038,8e-05,6,3,0.6
33.012,2732383.428,-0.00031,-0.00023,8e-05,6,3,0.6
33.029,2732383.447,0.00031,0.00038,0.00015,6,3,0.6
33.049,2732383.466,0.00031,-0.00031,0.00015,6,3,0.6
33.07,2732383.485,-0.00031,-0.00031,0.00015,6,3,0.6
33.09,2732383.504,-0.00031,0.00031,0.00015,6,3,0.6
33.109,2732383.523,-0.00031,-0.00031,-0.00046,6,3,0.6
33.124,2732383.542,0.00031,0.00031,0.00015,6,3,0.6
33.144,2732383.561,-0.00031,0.00031,0.00076,6,3,0.6
33.162,2732383.58,0.00092,0.00031,-0.00046,6,3,0.6
33.18,2732383.599,-0.00031,-0.00031,0.00015,6,3,0.6
33.201,2732383.618,0.00031,-0.00031,-0.00038,6,3,0.6
33.221,2732383.637,-0.00092,-0.00031,-0.00038,6,3,0.6
33.239,2732383.656,0.00084,0.00031,0.00023,6,3,0.6
33.256,2732383.675,-0.00038,0.00031,0.00023,6,3,0.6
33.277,2732383.694,0.00084,0.00031,0.00023,6,3,0.6
33.295,2732383.713,-0.00038,0.00031,0.00023,6,3,0.6
33.314,2732383.732,0.00084,-0.00031,0.00023,6,3,0.6
33.334,2732383.751,0.00023,-0.00031,0.00023,6,3,0.6
33.356,2732383.77,0.00023,0.00031,-0.00038,6,3,0.6
33.371,2732383.789,-0.00038,0.00031,0.00023,6,3,0.6
33.39,2732383.809,0.00023,0.00031,0.00084,6,3,0.6
33.409,2732383.828,0.00023,0.00031,0.00023,6,3,0.6
33.43,2732383.847,-0.00099,0.00031,0.00023,6,3,0.6
33.448,2732383.866,0.00084,0.00031,0.00023,6,3,0.6
33.466,2732383.885,-0.00038,-0.00031,0.00023,6,3,0.6
33.485,2732383.904,0.00023,0.00031,0.00023,6,3,0.6
33.526,2732383.923,-0.00099,-0.00031,0.00023,6,3,0.6
33.528,2732383.942,0.00023,-0.00031,0.00023,6,3,0.6
33.542,2732383.961,-0.00038,-0.00031,0.00023,6,3,0.6
33.561,2732383.98,0.00023,-0.00031,0.00084,6,3,0.6
33.58,2732383.999,-0.00038,-0.00031,0.00023,6,3,0.6
33.601,2732384.018,0.00084,-0.00031,0.00015,6,3,0.6
33.62,2732384.037,-0.00038,-0.00031,0.00015,6,3,0.6
33.638,2732384.056,0.00023,-0.00031,0.00015,6,3,0.6
33.656,2732384.075,0.00023,0.00031,0.00015,6,3,0.6
33.677,2732384.094,-0.00038,-0.00031,0.00015,6,3,0.6
33.696,2732384.113,0.00023,-0.00031,-0.00046,6,3,0.6
33.714,2732384.132,-0.00038,0.00031,0.00015,6,3,0.6
33.734,2732384.151,0.00023,-0.00031,8e-05,6,3,0.6
33.753,2732384.17,-0.00038,0.00031,8e-05,6,3,0.6
33.773,2732384.189,-0.00038,-0.00031,-0.00053,6,3,0.6
33.79,2732384.208,-0.00099,0.00031,-0.00053,6,3,0.6
33.809,2732384.227,0.00084,0.00031,8e-05,6,3,0.6
33.829,2732384.246,-0.00038,-0.00031,8e-05,6,3,0.6
33.848,2732384.265,0.00023,0.00031,-0.00053,6,3,0.6
33.867,2732384.284,-0.00038,-0.00031,0.00069,6,3,0.6
33.885,2732384.303,0.00084,0.00031,0.00069,6,3,0.6
33.905,2732384.322,0.00023,-0.00031,8e-05,6,3,0.6
33.925,2732384.341,0.00023,-0.00031,0.0,6,3,0.6
33.941,2732384.36,0.00023,-0.00031,0.0,6,3,0.6
33.96,2732384.379,0.00023,-0.00031,-0.00061,6,3,0.6
33.984,2732384.398,-0.00038,-0.00031,0.0,6,3,0.6
34.002,2732384.417,-0.00038,-0.00031,0.0,6,3,0.6
34.023,2732384.436,0.00023,0.00031,0.0,6,3,0.6
34.04,2732384.455,-0.00099,-0.00031,0.0,6,3,0.6
34.056,2732384.474,0.00023,0.00038,0.0,6,3,0.6
34.077,2732384.493,-0.00038,0.00038,0.0,6,3,0.6
34.1,2732384.512,0.00023,0.00038,0.0,6,3,0.6
34.114,2732384.531,-0.00099,-0.00023,0.0,6,3,0.6
34.133,2732384.55,0.00084,-0.00023,0.0,6,3,0.6
34.151,2732384.569,-0.00038,-0.00023,-0.00061,6,3,0.6
34.17,2732384.588,0.00023,0.00038,-0.00061,6,3,0.6
34.19,2732384.607,0.00023,0.00038,-0.00061,6,3,0.6
34.212,2732384.626,0.00084,0.00038,-0.00061,6,3,0.6
34.231,2732384.645,0.00023,-0.00023,-0.00053,6,3,0.6
34.247,2732384.664,-0.00038,0.00038,-0.00053,6,3,0.6
34.265,2732384.683,0.00023,0.00038,-0.00053,6,3,0.6
34.285,2732384.703,0.00023,0.00038,8e-05,6,3,0.6
34.305,2732384.722,0.00023,0.00038,8e-05,6,3,0.6
34.323,2732384.741,0.00023,0.00038,8e-05,6,3,0.6
34.343,2732384.76,0.00084,-0.00023,-0.00053,6,3,0.6
34.361,2732384.779,-0.00038,0.00038,-0.00053,6,3,0.6
34.382,2732384.798,0.00023,0.00038,-0.00053,6,3,0.6
34.405,2732384.817,-0.00099,-0.00023,8e-05,6,3,0.6
34.42,2732384.836,-0.00038,0.00038,8e-05,6,3,0.6
34.441,2732384.855,-0.00038,0.00038,8e-05,6,3,0.6
34.456,2732384.874,0.00023,-0.00023,0.00015,6,3,0.6
34.477,2732384.893,-0.00038,0.00031,0.00015,6,3,0.6
34.498,2732384.912,0.00023,0.00031,0.00015,6,3,0.6
34.515,2732384.931,0.00023,0.00031,0.00015,6,3,0.6
34.534,2732384.95,0.00023,0.00031,0.00015,6,3,0.6
34.554,2732384.969,-0.00038,0.00031,0.00015,6,3,0.6
34.571,2732384.988,-0.00038,0.00031,0.00015,6,3,0.6
34.589,2732385.007,0.00023,0.00031,0.00015,6,3,0.6
34.609,2732385.026,0.00023,0.00031,0.00023,6,3,0.6
34.628,2732385.045,0.00084,0.00031,0.00023,6,3,0.6
34.65,2732385.064,-0.00038,0.00023,-0.00038,6,3,0.6
34.665,2732385.083,0.00023,-0.00038,-0.00038,6,3,0.6
34.684,2732385.102,-0.00099,0.00023,-0.00038,6,3,0.6
34.704,2732385.121,0.00023,-0.00099,-0.00038,6,3,0.6
34.723,2732385.14,-0.00038,0.00023,0.00023,6,3,0.6
34.742,2732385.159,0.00023,0.00023,-0.00038,6,3,0.6
34.762,2732385.178,-0.00038,0.00023,0.00023,6,3,0.6
34.784,2732385.197,0.00084,0.00023,0.00023,6,3,0.6
34.804,2732385.216,0.00023,-0.00046,0.00023,6,3,0.6
34.822,2732385.235,0.00084,0.00015,0.00023,6,3,0.6
34.841,2732385.254,0.00023,-0.00046,0.00023,6,3,0.6
34.857,2732385.273,0.00023,-0.00046,-0.00038,6,3,0.6
34.876,2732385.292,0.00023,-0.00046,-0.00038,6,3,0.6
34.898,2732385.311,-0.00038,-0.00046,0.00023,6,3,0.6
34.917,2732385.33,0.00023,0.00015,0.00023,6,3,0.6
34.933,2732385.349,-0.00099,0.00015,-0.00038,6,3,0.6
34.951,2732385.368,0.00023,0.00015,0.00023,6,3,0.6
34.969,2732385.387,-0.00099,-0.00046,0.00023,6,3,0.6
34.994,2732385.406,0.00023,0.00015,0.00023,6,3,0.6
35.012,2732385.425,-0.00099,-0.00046,0.00023,6,3,0.6
35.028,2732385.444,0.00023,0.00015,0.00023,6,3,0.6
35.05,2732385.463,-0.00038,0.00015,0.00023,6,3,0.6
35.065,2732385.482,0.00023,-0.00046,0.00023,6,3,0.6
35.083,2732385.501,-0.00038,0.00015,-0.00038,6,3,0.6
35.109,2732385.52,0.00023,-0.00046,-0.00038,6,3,0.6
35.121,2732385.539,0.00023,-0.00046,0.00023,6,3,0.6
35.14,2732385.558,0.00023,-0.00046,0.00023,6,3,0.6
35.161,2732385.577,0.00023,-0.00046,0.00023,6,3,0.6
35.179,2732385.596,0.00023,0.00023,0.00023,6,3,0.6
35.198,2732385.616,-0.00038,0.00023,0.00023,6,3,0.6
35.219,2732385.635,-0.00038,-0.00038,0.00023,6,3,0.6
35.237,2732385.654,0.00023,0.00023,0.00023,6,3,0.6
35.256,2732385.673,-0.00099,0.00023,0.00023,6,3,0.6
35.274,2732385.692,0.00084,-0.00038,-0.00038,6,3,0.6
35.293,2732385.711,-0.00099,-0.00038,0.00015,6,3,0.6
35.314,2732385.73,0.00084,-0.00038,0.00015,6,3,0.6
35.334,2732385.749,-0.00038,-0.00099,0.00015,6,3,0.6
35.353,2732385.768,0.00023,0.00023,-0.00046,6,3,0.6
35.371,2732385.787,-0.00038,0.00031,-0.00046,6,3,0.6
35.389,2732385.806,0.00023,0.00031,-0.00046,6,3,0.6
35.409,2732385.825,0.00023,-0.00092,-0.00046,6,3,0.6
35.427,2732385.844,0.00023,-0.00031,-0.00046,6,3,0.6
35.446,2732385.863,-0.00038,-0.00031,-0.00046,6,3,0.6
35.463,2732385.882,0.00031,-0.00031,0.00015,6,3,0.6
35.482,2732385.901,0.00092,0.00031,0.00015,6,3,0.6
35.53,2732385.92,-0.00031,-0.00031,-0.00046,6,3,0.6
35.532,2732385.939,0.00031,0.00031,-0.00046,6,3,0.6
35.54,2732385.958,0.00031,-0.00031,0.00015,6,3,0.6
35.559,2732385.977,0.00092,-0.00031,0.00076,6,3,0.6
35.579,2732385.996,-0.00153,0.00031,0.00015,6,3,0.6
35.598,2732386.015,0.00031,0.00038,0.00015,6,3,0.6
35.617,2732386.034,-0.00092,-0.00023,-0.00046,6,3,0.6
35.636,2732386.053,0.00031,-0.00023,-0.00046,6,3,0.6
35.655,2732386.072,-0.00153,0.00038,-0.00046,6,3,0.6
35.674,2732386.091,0.00084,-0.00023,0.00015,6,3,0.6
35.692,2732386.11,0.00023,-0.00023,0.00015,6,3,0.6
35.712,2732386.129,0.00023,0.00038,0.00023,6,3,0.6
35.734,2732386.148,0.00023,-0.00023,0.00023,6,3,0.6
35.753,2732386.167,-0.00038,0.00038,-0.00038,6,3,0.6
35.769,2732386.186,0.00084,0.00038,-0.00038,6,3,0.6
35.788,2732386.205,0.00023,-0.00023,-0.00038,6,3,0.6
35.806,2732386.224,0.00084,0.00038,0.00023,6,3,0.6
35.825,2732386.243,-0.00038,0.00038,0.00023,6,3,0.6
35.845,2732386.262,0.00023,0.00038,0.00023,6,3,0.6
35.863,2732386.281,-0.00099,-0.00023,-0.00038,6,3,0.6
35.881,2732386.3,0.00023,0.00038,-0.00038,6,3,0.6
35.904,2732386.319,-0.00038,0.00038,0.00023,6,3,0.6
35.92,2732386.338,0.00084,0.00038,0.00023,6,3,0.6
35.941,2732386.357,-0.00038,-0.00023,0.00023,6,3,0.6
35.958,2732386.376,0.00023,0.00099,-0.00038,6,3,0.6
35.979,2732386.395,-0.00038,0.00038,0.00023,6,3,0.6
35.997,2732386.414,0.00023,-0.00023,0.00023,6,3,0.6
36.018,2732386.433,0.00023,-0.00084,-0.00038,6,3,0.6
36.035,2732386.452,0.00023,-0.00023,0.00023,6,3,0.6
36.056,2732386.471,-0.00038,0.00099,0.00023,6,3,0.6
36.074,2732386.49,-0.00038,-0.00023,0.00023,6,3,0.6
36.093,2732386.51,0.00023,-0.00023,0.00023,6,3,0.6
36.111,2732386.529,-0.00038,0.00031,0.00084,6,3,0.6
36.13,2732386.548,0.00023,0.00031,0.00023,6,3,0.6
36.149,2732386.567,-0.00038,0.00031,0.00023,6,3,0.6
36.169,2732386.586,0.00084,-0.00031,-0.00038,6,3,0.6
36.186,2732386.605,-0.00099,-0.00031,0.00023,6,3,0.6
36.206,2732386.624,0.00023,0.00031,0.00023,6,3,0.6
36.226,2732386.643,-0.00099,-0.00031,-0.00038,6,3,0.6
36.246,2732386.662,-0.00038,-0.00031,0.00023,6,3,0.6
36.261,2732386.681,-0.00038,-0.00031,0.00023,6,3,0.6
36.285,2732386.7,0.00023,0.00031,0.00023,6,3,0.6
36.302,2732386.719,0.00023,0.00031,0.00023,6,3,0.6
36.321,2732386.738,-0.00038,-0.00038,0.00023,6,3,0.6
36.34,2732386.757,-0.00038,-0.00038,-0.00038,6,3,0.6
36.358,2732386.776,-0.00099,0.00023,0.00023,6,3,0.6
36.378,2732386.795,0.00023,-0.00038,0.00023,6,3,0.6
36.397,2732386.814,-0.00038,-0.00099,0.00015,6,3,0.6
36.416,2732386.833,-0.00038,0.00023,-0.00046,6,3,0.6
36.439,2732386.852,-0.00038,-0.00038,0.00015,6,3,0.6
36.455,2732386.871,0.00084,0.00023,0.00015,6,3,0.6
36.473,2732386.89,-0.00038,-0.00038,0.00015,6,3,0.6
36.495,2732386.909,0.00031,0.00023,0.00076,6,3,0.6
36.514,2732386.928,0.00031,0.00031,0.00015,6,3,0.6
36.534,2732386.947,0.00092,0.00031,0.00015,6,3,0.6
36.549,2732386.966,-0.00031,0.00031,0.00015,6,3,0.6
36.567,2732386.985,0.00031,0.00031,0.00015,6,3,0.6
36.586,2732387.004,0.00031,0.00031,0.00015,6,3,0.6
36.606,2732387.023,0.00031,-0.00031,0.00015,6,3,0.6
36.623,2732387.042,0.00031,-0.00031,8e-05,6,3,0.6
36.642,2732387.061,-0.00031,-0.00031,-0.00053,6,3,0.6
36.661,2732387.08,0.00031,-0.00031,-0.00053,6,3,0.6
36.681,2732387.099,-0.00031,-0.00031,-0.00053,6,3,0.6
36.699,2732387.118,0.00031,-0.00031,-0.00053,6,3,0.6
36.719,2732387.137,-0.00031,-0.00031,-0.00053,6,3,0.6
36.738,2732387.156,0.00038,0.00031,8e-05,6,3,0.6
36.758,2732387.175,-0.00084,-0.00031,-0.00053,6,3,0.6
36.781,2732387.194,0.00031,0.00031,8e-05,6,3,0.6
36.796,2732387.213,-0.00031,-0.00031,8e-05,6,3,0.6
36.815,2732387.232,0.00031,0.00031,-0.00053,6,3,0.6
36.837,2732387.251,-0.00031,0.00031,-0.00053,6,3,0.6
36.857,2732387.27,-0.00031,0.00031,0.00069,6,3,0.6
36.872,2732387.289,-0.00031,-0.00031,8e-05,6,3,0.6
36.892,2732387.308,0.00031,0.00031,8e-05,6,3,0.6
36.91,2732387.327,0.00031,0.00038,8e-05,6,3,0.6
36.934,2732387.346,-0.00031,-0.00023,8e-05,6,3,0.6
36.948,2732387.365,-0.00031,-0.00023,8e-05,6,3,0.6
36.967,2732387.384,-0.00031,-0.00031,0.00015,6,3,0.6
36.986,2732387.404,0.00031,0.00031,0.00015,6,3,0.6
37.006,2732387.423,-0.00031,0.00031,0.00015,6,3,0.6
37.024,2732387.442,0.00031,0.00031,0.00015,6,3,0.6
37.042,2732387.461,-0.00031,0.00031,0.00015,6,3,0.6
37.062,2732387.48,0.00031,0.00031,-0.00046,6,3,0.6
37.081,2732387.499,-0.00031,-0.00031,0.00015,6,3,0.6
37.106,2732387.518,0.00092,0.00031,0.00015,6,3,0.6
37.12,2732387.537,-0.00031,-0.00031,0.00015,6,3,0.6
37.138,2732387.556,0.00092,0.00031,0.00015,6,3,0.6
37.156,2732387.575,-0.00031,-0.00031,-0.00046,6,3,0.6
37.177,2732387.594,-0.00031,0.00031,-0.00046,6,3,0.6
37.195,2732387.613,-0.00031,0.00031,-0.00046,6,3,0.6
37.215,2732387.632,0.00031,0.00031,0.00015,6,3,0.6
37.234,2732387.651,0.00031,0.00031,0.00015,6,3,0.6
37.253,2732387.67,0.00031,-0.00031,0.00015,6,3,0.6
37.273,2732387.689,-0.00031,0.00031,-0.00046,6,3,0.6
37.295,2732387.708,-0.00031,0.00031,0.00015,6,3,0.6
37.313,2732387.727,0.00031,-0.00031,-0.00046,6,3,0.6
37.329,2732387.746,-0.00031,0.00031,-0.00046,6,3,0.6
37.352,2732387.765,0.00092,0.00031,0.00015,6,3,0.6
37.366,2732387.784,-0.00092,-0.00031,0.00015,6,3,0.6
37.388,2732387.803,0.00031,0.00031,0.00015,6,3,0.6
37.405,2732387.822,-0.00092,-0.00038,0.00015,6,3,0.6
37.424,2732387.841,0.00092,0.00023,0.00015,6,3,0.6
37.442,2732387.86,-0.00031,0.00023,0.00015,6,3,0.6
37.464,2732387.879,-0.00031,0.00023,-0.00046,6,3,0.6
37.481,2732387.898,-0.00031,0.00084,0.00015,6,3,0.6
37.503,2732387.917,0.00031,0.00023,0.00015,6,3,0.6
37.527,2732387.936,0.00031,0.00023,-0.00046,6,3,0.6
37.536,2732387.955,-0.00031,0.00023,-0.00046,6,3,0.6
37.555,2732387.974,0.00031,0.00023,-0.00046,6,3,0.6
37.576,2732387.993,-0.00031,0.00023,0.00015,6,3,0.6
37.596,2732388.012,0.00031,-0.00038,0.00015,6,3,0.6
37.615,2732388.031,-0.00031,-0.00038,-0.00046,6,3,0.6
37.633,2732388.05,0.00092,0.00023,0.00015,6,3,0.6
37.652,2732388.069,-0.00031,0.00023,0.00015,6,3,0.6
37.672,2732388.088,0.00031,0.00015,0.00015,6,3,0.6
37.69,2732388.107,-0.00031,-0.00046,0.00015,6,3,0.6
37.709,2732388.126,0.00031,-0.00046,0.00015,6,3,0.6
37.729,2732388.145,0.00031,-0.00046,-0.00038,6,3,0.6
37.747,2732388.164,0.00031,0.00015,-0.00038,6,3,0.6
37.766,2732388.183,0.00031,-0.00046,0.00023,6,3,0.6
37.784,2732388.202,0.00031,0.00015,0.00023,6,3,0.6
37.804,2732388.221,0.00031,-0.00046,0.00023,6,3,0.6
37.823,2732388.24,-0.00031,0.00015,0.00023,6,3,0.6
37.842,2732388.259,0.00031,0.00015,-0.00038,6,3,0.6
37.86,2732388.278,-0.00031,-0.00046,0.00023,6,3,0.6
37.881,2732388.298,0.00092,-0.00046,0.00023,6,3,0.6
37.903,2732388.317,-0.00031,-0.00046,0.00023,6,3,0.6
37.919,2732388.336,0.00092,0.00015,0.00023,6,3,0.6
37.939,2732388.355,-0.00031,0.00015,0.00023,6,3,0.6
37.955,2732388.374,0.00031,-0.00046,0.00023,6,3,0.6
37.976,2732388.393,-0.00092,0.00015,-0.00038,6,3,0.6
37.999,2732388.412,0.00023,-0.00046,-0.00038,6,3,0.6
38.016,2732388.431,-0.00038,-0.00046,-0.00038,6,3,0.6
38.035,2732388.45,0.00023,-0.00046,0.00023,6,3,0.6
38.053,2732388.469,-0.00038,-0.00046,-0.00038,6,3,0.6
38.069,2732388.488,0.00023,0.00015,0.00023,6,3,0.6
38.093,2732388.507,0.00023,0.00023,0.00023,6,3,0.6
38.111,2732388.526,0.00023,-0.00038,0.00023,6,3,0.6
38.128,2732388.545,0.00023,0.00023,0.00023,6,3,0.6
38.146,2732388.564,0.00023,0.00023,0.00023,6,3,0.6
38.165,2732388.583,0.00023,0.00023,-0.00038,6,3,0.6
38.183,2732388.602,-0.00038,-0.00038,0.00023,6,3,0.6
38.206,2732388.621,0.00023,0.00023,-0.00038,6,3,0.6
38.223,2732388.64,-0.00099,-0.00038,0.00023,6,3,0.6
38.241,2732388.659,0.00023,0.00023,-0.00046,6,3,0.6
38.266,2732388.678,-0.00099,-0.00031,0.00015,6,3,0.6
38.283,2732388.697,0.00023,0.00031,0.00015,6,3,0.6
38.3,2732388.716,-0.00099,-0.00031,0.00015,6,3,0.6
38.322,2732388.735,0.00076,-0.00031,0.00015,6,3,0.6
38.337,2732388.754,-0.00038,-0.00031,-0.00046,6,3,0.6
38.356,2732388.773,0.00023,0.00031,-0.00046,6,3,0.6
38.375,2732388.792,0.00023,0.00031,-0.00046,6,3,0.6
38.394,2732388.811,-0.00038,-0.00031,0.00015,6,3,0.6
38.413,2732388.83,0.00023,-0.00031,0.00015,6,3,0.6
38.432,2732388.849,-0.00038,-0.00031,0.00015,6,3,0.6
38.45,2732388.868,0.00023,-0.00031,0.00076,6,3,0.6
38.469,2732388.887,-0.00038,-0.00031,0.00023,6,3,0.6
38.488,2732388.906,0.00023,-0.00031,0.00023,6,3,0.6
38.511,2732388.925,-0.00099,-0.00031,0.00023,6,3,0.6
38.527,2732388.944,0.00084,0.00031,0.00023,6,3,0.6
38.55,2732388.963,-0.00038,0.00031,0.00023,6,3,0.6
38.564,2732388.982,0.00023,0.00031,0.00023,6,3,0.6
38.582,2732389.001,0.00023,-0.00031,0.00023,6,3,0.6
38.604,2732389.02,0.00023,-0.00031,0.00023,6,3,0.6
38.621,2732389.039,-0.00038,-0.00031,-0.00038,6,3,0.6
38.642,2732389.058,0.00084,-0.00031,0.00015,6,3,0.6
38.661,2732389.077,0.00023,0.00031,0.00015,6,3,0.6
38.681,2732389.096,-0.00031,-0.00023,0.00015,6,3,0.6
38.699,2732389.115,0.00031,-0.00023,0.00076,6,3,0.6
38.719,2732389.134,-0.00031,-0.00023,0.00076,6,3,0.6
38.74,2732389.153,0.00031,-0.00023,0.00015,6,3,0.6
38.756,2732389.172,-0.00031,-0.00023,-0.00046,6,3,0.6
38.774,2732389.192,0.00031,-0.00023,0.00015,6,3,0.6
38.793,2732389.211,-0.00092,0.00038,0.00015,6,3,0.6
38.815,2732389.23,0.00031,-0.00023,0.00015,6,3,0.6
38.831,2732389.249,-0.00092,-0.00023,-0.00046,6,3,0.6
38.849,2732389.268,0.00031,0.00038,0.00015,6,3,0.6
38.868,2732389.287,-0.00092,-0.00023,0.00015,6,3,0.6
38.888,2732389.306,0.00031,-0.00023,8e-05,6,3,0.6
38.909,2732389.325,-0.00031,-0.00023,8e-05,6,3,0.6
38.931,2732389.344,0.00031,-0.00023,8e-05,6,3,0.6
38.946,2732389.363,0.00031,0.00038,8e-05,6,3,0.6
38.964,2732389.382,0.00031,-0.00023,0.00069,6,3,0.6
38.983,2732389.401,0.00031,-0.00015,-0.00053,6,3,0.6
39.004,2732389.42,-0.00031,-0.00015,-0.00053,6,3,0.6
39.023,2732389.439,0.00092,-0.00015,-0.00053,6,3,0.6
39.042,2732389.458,0.00031,0.00046,8e-05,6,3,0.6
39.06,2732389.477,0.00031,0.00046,8e-05,6,3,0.6
39.079,2732389.496,-0.00031,-0.00015,-0.00053,6,3,0.6
39.105,2732389.515,0.00031,0.00046,8e-05,6,3,0.6
39.116,2732389.534,-0.00031,0.00046,8e-05,6,3,0.6
39.137,2732389.553,0.00092,0.00046,0.0,6,3,0.6
39.153,2732389.572,0.00031,-0.00015,0.00061,6,3,0.6
39.174,2732389.591,0.00031,0.00046,0.00061,6,3,0.6
39.192,2732389.61,-0.00031,0.00046,0.0,6,3,0.6
39.212,2732389.629,0.00031,0.00046,8e-05,6,3,0.6
39.231,2732389.648,-0.00031,-0.00015,-0.00053,6,3,0.6
39.251,2732389.667,0.00092,-0.00015,-0.00053,6,3,0.6
39.275,2732389.686,0.00031,-0.00015,8e-05,6,3,0.6
39.287,2732389.705,-0.00092,-0.00015,-0.00053,6,3,0.6
39.307,2732389.724,0.00023,0.00046,8e-05,6,3,0.6
39.327,2732389.743,-0.00038,0.00046,8e-05,6,3,0.6
39.345,2732389.762,-0.00038,0.00046,8e-05,6,3,0.6
39.362,2732389.781,0.00023,-0.00015,8e-05,6,3,0.6
39.381,2732389.8,0.00023,0.00038,8e-05,6,3,0.6
39.405,2732389.819,-0.00038,0.00038,8e-05,6,3,0.6
39.421,2732389.838,0.00023,0.00038,8e-05,6,3,0.6
39.441,2732389.857,-0.00099,-0.00023,0.00069,6,3,0.6
39.459,2732389.876,0.00023,0.00038,8e-05,6,3,0.6
39.482,2732389.895,-0.00038,-0.00023,-0.00053,6,3,0.6
39.501,2732389.914,0.00023,0.00038,-0.00053,6,3,0.6
39.527,2732389.933,-0.00038,0.00038,8e-05,6,3,0.6
39.535,2732389.952,0.00023,-0.00023,8e-05,6,3,0.6
39.553,2732389.971,0.00023,-0.00023,8e-05,6,3,0.6
39.573,2732389.99,0.00023,0.00031,-0.00053,6,3,0.6
39.592,2732390.009,0.00023,0.00031,8e-05,6,3,0.6
39.611,2732390.028,0.00023,-0.00031,8e-05,6,3,0.6
39.63,2732390.047,0.00084,-0.00031,8e-05,6,3,0.6
39.649,2732390.066,-0.00038,-0.00031,8e-05,6,3,0.6
39.669,2732390.086,0.00084,-0.00031,8e-05,6,3,0.6
39.686,2732390.105,-0.00099,-0.00031,-0.00053,6,3,0.6
39.706,2732390.124,0.00023,-0.00031,8e-05,6,3,0.6
39.727,2732390.143,-0.00099,-0.00031,8e-05,6,3,0.6
39.748,2732390.162,0.00023,-0.00031,8e-05,6,3,0.6
39.763,2732390.181,-0.00099,-0.00031,8e-05,6,3,0.6
39.784,2732390.2,0.00023,0.00031,8e-05,6,3,0.6
39.8,2732390.219,-0.00038,-0.00031,8e-05,6,3,0.6
39.824,2732390.238,0.00023,0.00031,-0.00053,6,3,0.6
39.84,2732390.257,-0.00038,0.00031,-0.00053,6,3,0.6
39.858,2732390.276,-0.00038,0.00031,8e-05,6,3,0.6
39.881,2732390.295,0.00084,-0.00031,8e-05,6,3,0.6
39.902,2732390.314,-0.00038,-0.00031,0.00069,6,3,0.6
39.917,2732390.333,-0.00038,0.00031,8e-05,6,3,0.6
39.939,2732390.352,-0.00038,-0.00031,8e-05,6,3,0.6
39.953,2732390.371,0.00023,-0.00031,8e-05,6,3,0.6
39.973,2732390.39,-0.00099,0.00031,8e-05,6,3,0.6
39.991,2732390.409,-0.00038,0.00031,8e-05,6,3,0.6
40.012,2732390.428,-0.00099,0.00031,8e-05,6,3,0.6
40.033,2732390.447,-0.00038,-0.00031,-0.00053,6,3,0.6
40.052,2732390.466,-0.00092,-0.00092,8e-05,6,3,0.6
40.067,2732390.485,0.00031,-0.00031,8e-05,6,3,0.6
40.093,2732390.504,-0.00092,-0.00031,8e-05,6,3,0.6
40.105,2732390.523,-0.00031,0.00038,8e-05,6,3,0.6
40.125,2732390.542,-0.00031,-0.00023,8e-05,6,3,0.6
40.144,2732390.561,0.00031,-0.00023,8e-05,6,3,0.6
40.162,2732390.58,0.00031,-0.00023,-0.00053,6,3,0.6
40.182,2732390.599,-0.00092,-0.00084,-0.00053,6,3,0.6
40.202,2732390.618,0.00031,-0.00023,-0.00053,6,3,0.6
40.22,2732390.637,-0.00023,-0.00023,-0.00053,6,3,0.6
40.24,2732390.656,0.00038,-0.00023,-0.00053,6,3,0.6
40.256,2732390.675,-0.00023,0.00038,-0.00053,6,3,0.6
40.278,2732390.694,0.00038,0.00099,8e-05,6,3,0.6
40.295,2732390.713,-0.00023,0.00038,8e-05,6,3,0.6
40.315,2732390.732,0.00038,0.00099,8e-05,6,3,0.6
40.335,2732390.751,-0.00076,-0.00023,8e-05,6,3,0.6
40.353,2732390.77,-0.00015,0.00038,8e-05,6,3,0.6
40.371,2732390.789,-0.00015,-0.00023,8e-05,6,3,0.6
40.391,2732390.808,0.00046,0.00038,0.00069,6,3,0.6
40.413,2732390.827,0.00046,0.00038,8e-05,6,3,0.6
40.429,2732390.846,0.00046,-0.00023,0.00015,6,3,0.6
40.447,2732390.865,0.00046,0.00038,0.00076,6,3,0.6
40.466,2732390.884,-0.00015,-0.00023,0.00076,6,3,0.6
40.485,2732390.903,0.00053,0.00038,0.00076,6,3,0.6
40.505,2732390.922,-0.00069,0.00038,0.00015,6,3,0.6
40.524,2732390.941,0.00115,0.00038,0.00015,6,3,0.6
40.544,2732390.96,-8e-05,-0.00023,0.00015,6,3,0.6
40.56,2732390.98,0.00053,-0.00023,-0.00046,6,3,0.6
40.585,2732390.999,-0.00069,-0.00023,-0.00046,6,3,0.6
40.604,2732391.018,0.00053,-0.00023,-0.00046,6,3,0.6
40.622,2732391.037,0.00053,-0.00023,0.00015,6,3,0.6
40.639,2732391.056,0.00107,0.00099,0.00015,6,3,0.6
40.657,2732391.075,-0.00015,-0.00023,0.00015,6,3,0.6
40.676,2732391.094,0.00046,0.00038,0.00015,6,3,0.6
40.695,2732391.113,0.00046,-0.00023,0.00015,6,3,0.6
40.715,2732391.132,0.00046,0.00038,8e-05,6,3,0.6
40.738,2732391.151,-0.00015,0.00038,-0.00053,6,3,0.6
40.756,2732391.17,-0.00015,0.00031,-0.00053,6,3,0.6
40.772,2732391.189,-0.00015,-0.00031,-0.00053,6,3,0.6
40.79,2732391.208,-0.00023,-0.00031,8e-05,6,3,0.6
40.81,2732391.227,0.00038,-0.00031,-0.00053,6,3,0.6
40.829,2732391.246,-0.00023,-0.00031,8e-05,6,3,0.6
40.852,2732391.265,0.00038,0.00031,-0.00053,6,3,0.6
40.869,2732391.284,-0.00084,-0.00031,-0.00053,6,3,0.6
40.886,2732391.303,0.00099,0.00031,8e-05,6,3,0.6
40.904,2732391.322,-0.00084,-0.00031,8e-05,6,3,0.6
40.923,2732391.341,0.00031,0.00031,-0.00053,6,3,0.6
40.942,2732391.36,-0.00092,0.00031,-0.00053,6,3,0.6
40.961,2732391.379,-0.00031,0.00031,-0.00053,6,3,0.6
40.986,2732391.398,-0.00031,-0.00031,8e-05,6,3,0.6
41.002,2732391.417,0.00031,-0.00031,8e-05,6,3,0.6
41.019,2732391.436,0.00031,-0.00031,8e-05,6,3,0.6
41.038,2732391.455,-0.00031,0.00031,-0.00053,6,3,0.6
41.058,2732391.474,0.00031,-0.00031,-0.00053,6,3,0.6
41.075,2732391.493,-0.00031,-0.00031,0.00015,6,3,0.6
41.094,2732391.512,0.00031,-0.00031,0.00076,6,3,0.6
41.113,2732391.531,-0.00031,0.00031,0.00015,6,3,0.6
41.133,2732391.55,0.00092,-0.00031,0.00015,6,3,0.6
41.151,2732391.569,-0.00031,-0.00031,0.00015,6,3,0.6
41.17,2732391.588,0.00031,0.00031,0.00015,6,3,0.6
41.189,2732391.607,-0.00031,0.00031,0.00015,6,3,0.6
41.209,2732391.626,0.00092,0.00031,0.00015,6,3,0.6
41.228,2732391.645,0.00031,0.00031,0.00023,6,3,0.6
41.248,2732391.664,0.00092,0.00031,0.00023,6,3,0.6
41.265,2732391.683,-0.00031,0.00031,0.00023,6,3,0.6
41.283,2732391.702,-0.00031,0.00092,-0.00038,6,3,0.6
41.303,2732391.721,-0.00031,0.00092,0.00023,6,3,0.6
41.323,2732391.74,0.00031,0.00031,0.00023,6,3,0.6
41.34,2732391.759,-0.00031,-0.00031,0.00023,6,3,0.6
41.361,2732391.778,0.00031,-0.00092,0.00023,6,3,0.6
41.382,2732391.797,0.00092,-0.00031,0.00023,6,3,0.6
41.4,2732391.816,-0.00092,-0.00031,-0.00038,6,3,0.6
41.421,2732391.835,0.00092,0.00031,0.00023,6,3,0.6
41.436,2732391.854,-0.00031,0.00031,0.00023,6,3,0.6
41.455,2732391.873,0.00092,-0.00031,0.00023,6,3,0.6
41.476,2732391.893,0.00031,0.00031,0.00023,6,3,0.6
41.511,2732391.912,0.00031,0.00031,-0.00038,6,3,0.6
41.54,2732391.931,-0.00031,-0.00031,-0.00038,6,3,0.6
41.541,2732391.95,0.00031,0.00031,0.00015,6,3,0.6
41.55,2732391.969,-0.00092,0.00031,0.00015,6,3,0.6
41.569,2732391.988,-0.00031,0.00092,0.00015,6,3,0.6
41.588,2732392.007,0.00031,0.00031,0.00015,6,3,0.6
41.61,2732392.026,0.00023,0.00031,0.00015,6,3,0.6
41.628,2732392.045,0.00023,-0.00038,0.00076,6,3,0.6
41.646,2732392.064,-0.00038,0.00023,0.00015,6,3,0.6
41.665,2732392.083,0.00023,0.00023,0.00015,6,3,0.6
41.682,2732392.102,-0.00099,0.00023,-0.00046,6,3,0.6
41.703,2732392.121,0.00023,0.00023,0.00015,6,3,0.6
41.722,2732392.14,-0.00038,-0.00038,-0.00046,6,3,0.6
41.742,2732392.159,0.00084,0.00023,-0.00053,6,3,0.6
41.761,2732392.178,-0.00099,-0.00038,-0.00053,6,3,0.6
41.778,2732392.197,0.00023,-0.00038,-0.00053,6,3,0.6
41.802,2732392.216,-0.00038,-0.00038,8e-05,6,3,0.6
41.819,2732392.235,0.00023,0.00015,8e-05,6,3,0.6
41.835,2732392.254,-0.00099,0.00076,8e-05,6,3,0.6
41.854,2732392.273,-0.00099,0.00015,8e-05,6,3,0.6
41.877,2732392.292,-0.00038,0.00015,8e-05,6,3,0.6
41.894,2732392.311,0.00023,0.00015,-0.00053,6,3,0.6
41.913,2732392.33,0.00023,0.00015,8e-05,6,3,0.6
41.935,2732392.349,0.00023,-0.00046,-0.00053,6,3,0.6
41.951,2732392.368,-0.00038,-0.00046,8e-05,6,3,0.6
41.97,2732392.387,-0.00038,-0.00046,0.00076,6,3,0.6
41.992,2732392.406,0.00023,-0.00046,0.00015,6,3,0.6
42.011,2732392.425,-0.00038,-0.00046,0.00015,6,3,0.6
42.027,2732392.444,0.00084,-0.00046,-0.00046,6,3,0.6
42.05,2732392.463,-0.00031,-0.00046,-0.00046,6,3,0.6
42.064,2732392.482,0.00031,0.00015,0.00015,6,3,0.6
42.082,2732392.501,-0.00031,0.00015,0.00076,6,3,0.6
42.104,2732392.52,0.00031,0.00015,0.00015,6,3,0.6
42.121,2732392.539,-0.00092,-0.00046,0.00015,6,3,0.6
42.142,2732392.558,0.00031,-0.00046,-0.00046,6,3,0.6
42.16,2732392.577,0.00031,-0.00046,-0.00046,6,3,0.6
42.18,2732392.596,0.00031,0.00015,0.00015,6,3,0.6
42.199,2732392.615,0.00031,0.00015,0.00015,6,3,0.6
42.218,2732392.634,-0.00031,-0.00046,0.00015,6,3,0.6
42.235,2732392.653,0.00031,0.00023,0.00015,6,3,0.6
42.253,2732392.672,-0.00084,-0.00038,0.00076,6,3,0.6
42.274,2732392.691,-0.00023,0.00023,-0.00046,6,3,0.6
42.294,2732392.71,-0.00084,-0.00038,-0.00046,6,3,0.6
42.314,2732392.729,0.00038,-0.00038,-0.00046,6,3,0.6
42.331,2732392.748,-0.00023,-0.00038,0.00076,6,3,0.6
42.354,2732392.767,0.00038,0.00023,0.00015,6,3,0.6
42.371,2732392.787,-0.00023,-0.00038,0.00015,6,3,0.6
42.388,2732392.806,0.00038,-0.00038,0.00015,6,3,0.6
42.411,2732392.825,-0.00023,-0.00038,0.00015,6,3,0.6
42.429,2732392.844,0.00038,-0.00031,0.00015,6,3,0.6
42.446,2732392.863,0.00038,-0.00031,0.00015,6,3,0.6
42.465,2732392.882,0.00099,-0.00031,0.00015,6,3,0.6
42.485,2732392.901,0.00038,-0.00031,0.00015,6,3,0.6
42.504,2732392.92,-0.00023,0.00031,0.00015,6,3,0.6
42.522,2732392.939,0.00038,-0.00031,-0.00046,6,3,0.6
42.541,2732392.958,-0.00023,-0.00031,0.00015,6,3,0.6
42.56,2732392.977,-0.00023,-0.00031,0.00015,6,3,0.6
42.583,2732392.996,-0.00084,0.00031,0.00015,6,3,0.6
42.601,2732393.015,0.00099,0.00038,0.00015,6,3,0.6
42.621,2732393.034,-0.00023,0.00038,-0.00046,6,3,0.6
42.64,2732393.053,0.0016,0.00038,-0.00053,6,3,0.6
42.654,2732393.072,0.00031,0.00038,0.00069,6,3,0.6
42.674,2732393.091,0.00092,0.00038,8e-05,6,3,0.6
42.693,2732393.11,-0.00092,-0.00023,8e-05,6,3,0.6
42.712,2732393.129,0.00031,-0.00023,8e-05,6,3,0.6
42.731,2732393.148,-0.00031,0.00038,8e-05,6,3,0.6
42.754,2732393.167,-0.00031,-0.00023,-0.00053,6,3,0.6
42.77,2732393.186,-0.00031,-0.00023,8e-05,6,3,0.6
42.788,2732393.205,-0.00031,-0.00023,8e-05,6,3,0.6
42.808,2732393.224,0.00092,-0.00084,8e-05,6,3,0.6
42.827,2732393.243,-0.00031,0.00038,8e-05,6,3,0.6
42.845,2732393.262,0.00031,0.00038,-0.00053,6,3,0.6
42.863,2732393.281,-0.00092,0.00038,0.00069,6,3,0.6
42.882,2732393.3,0.00092,-0.00023,0.00069,6,3,0.6
42.904,2732393.319,-0.00092,0.00038,8e-05,6,3,0.6
42.923,2732393.338,-0.00031,0.00038,-0.00053,6,3,0.6
42.941,2732393.357,-0.00092,-0.00023,-0.00053,6,3,0.6
42.96,2732393.376,0.00023,-0.00023,-0.00053,6,3,0.6
42.982,2732393.395,-0.00038,-0.00023,8e-05,6,3,0.6
43.001,2732393.414,0.00023,0.00038,8e-05,6,3,0.6
43.018,2732393.433,-0.00038,-0.00023,8e-05,6,3,0.6
43.04,2732393.452,0.00023,0.00038,8e-05,6,3,0.6
43.056,2732393.471,0.00023,-0.00023,-0.00053,6,3,0.6
43.073,2732393.49,0.00023,0.00038,8e-05,6,3,0.6
43.094,2732393.509,0.00023,0.00038,8e-05,6,3,0.6
43.111,2732393.528,0.00023,0.00038,8e-05,6,3,0.6
43.131,2732393.547,0.00031,-0.00023,8e-05,6,3,0.6
43.15,2732393.566,-0.00031,-0.00023,8e-05,6,3,0.6
43.169,2732393.585,0.00031,0.00099,8e-05,6,3,0.6
43.186,2732393.604,-0.00092,-0.00023,8e-05,6,3,0.6
43.206,2732393.623,0.00031,-0.00023,-0.00053,6,3,0.6
43.226,2732393.642,-0.00031,-0.00023,-0.00053,6,3,0.6
43.245,2732393.661,0.00092,-0.00031,8e-05,6,3,0.6
43.262,2732393.681,-0.00092,0.00031,-0.00053,6,3,0.6
43.285,2732393.7,0.00031,-0.00031,8e-05,6,3,0.6
43.306,2732393.719,-0.00092,-0.00031,8e-05,6,3,0.6
43.321,2732393.738,0.00031,-0.00031,-0.00053,6,3,0.6
43.34,2732393.757,-0.00031,-0.00031,-0.00053,6,3,0.6
43.358,2732393.776,0.00031,-0.00031,8e-05,6,3,0.6
43.379,2732393.795,-0.00031,-0.00031,0.00069,6,3,0.6
43.396,2732393.814,-0.00031,0.00031,8e-05,6,3,0.6
43.415,2732393.833,0.00031,-0.00031,-0.00053,6,3,0.6
43.439,2732393.852,0.00031,-0.00031,0.00015,6,3,0.6
43.455,2732393.871,0.00031,-0.00031,0.00015,6,3,0.6
43.475,2732393.89,-0.00031,0.00031,0.00015,6,3,0.6
43.491,2732393.909,0.00092,-0.00031,0.00015,6,3,0.6
43.511,2732393.928,-0.00092,0.00031,-0.00046,6,3,0.6
43.528,2732393.947,0.00031,0.00031,0.00015,6,3,0.6
43.547,2732393.966,-0.00092,0.00038,0.00015,6,3,0.6
43.566,2732393.985,0.00031,0.00038,-0.00046,6,3,0.6
43.586,2732394.004,0.00031,-0.00023,0.00015,6,3,0.6
43.608,2732394.023,0.00031,-0.00023,0.00076,6,3,0.6
43.624,2732394.042,-0.00031,-0.00023,0.00015,6,3,0.6
43.643,2732394.061,0.00031,0.00038,0.00015,6,3,0.6
43.662,2732394.08,0.00031,0.00038,0.00015,6,3,0.6
43.682,2732394.099,-0.00031,-0.00023,0.00015,6,3,0.6
43.703,2732394.118,0.00092,0.00038,0.00015,6,3,0.6
43.719,2732394.137,-0.00031,-0.00023,-0.00046,6,3,0.6
43.737,2732394.156,0.00031,0.00038,-0.00046,6,3,0.6
43.759,2732394.175,-0.00031,-0.00023,0.00015,6,3,0.6
43.777,2732394.194,0.00092,0.00038,-0.00046,6,3,0.6
43.798,2732394.213,-0.00092,0.00038,-0.00046,6,3,0.6
43.813,2732394.232,0.00031,0.00038,-0.00046,6,3,0.6
43.833,2732394.251,-0.00092,0.00038,0.00015,6,3,0.6
43.852,2732394.27,0.00031,-0.00023,-0.00046,6,3,0.6
43.87,2732394.289,-0.00031,0.00038,-0.00046,6,3,0.6
43.89,2732394.308,0.00092,-0.00023,0.00076,6,3,0.6
43.911,2732394.327,0.00031,-0.00023,0.00015,6,3,0.6
43.931,2732394.346,-0.00031,-0.00023,0.00015,6,3,0.6
43.95,2732394.365,-0.00031,0.00038,0.00015,6,3,0.6
43.966,2732394.384,-0.00031,0.00038,-0.00046,6,3,0.6
43.986,2732394.403,-0.00031,-0.00023,-0.00046,6,3,0.6
44.005,2732394.422,-0.00031,-0.00031,0.00015,6,3,0.6
44.023,2732394.441,0.00031,-0.00031,0.00015,6,3,0.6
44.043,2732394.46,-0.00031,-0.00031,0.00076,6,3,0.6
44.062,2732394.479,0.00092,0.00031,0.00015,6,3,0.6
44.081,2732394.498,-0.00031,-0.00031,0.00015,6,3,0.6
44.103,2732394.517,0.00092,0.00031,-0.00046,6,3,0.6
44.121,2732394.536,-0.00031,-0.00031,0.00015,6,3,0.6
44.137,2732394.555,0.00031,-0.00031,0.00015,6,3,0.6
44.155,2732394.575,-0.00092,-0.00031,0.00015,6,3,0.6
44.176,2732394.594,0.00031,0.00031,0.00015,6,3,0.6
44.195,2732394.613,0.00031,-0.00031,0.00015,6,3,0.6
44.214,2732394.632,0.00031,-0.00031,-0.00046,6,3,0.6
44.236,2732394.651,-0.00031,0.00031,0.00015,6,3,0.6
44.251,2732394.67,0.00031,0.00031,-0.00046,6,3,0.6
44.271,2732394.689,-0.00031,0.00031,-0.00046,6,3,0.6
44.289,2732394.708,0.00031,0.00031,-0.00046,6,3,0.6
44.31,2732394.727,0.00092,0.00031,0.00015,6,3,0.6
44.328,2732394.746,-0.00031,0.00031,-0.00046,6,3,0.6
44.349,2732394.765,0.00031,0.00031,0.00015,6,3,0.6
44.367,2732394.784,-0.00031,0.00031,0.00015,6,3,0.6
44.385,2732394.803,0.00031,0.00031,-0.00046,6,3,0.6
44.403,2732394.822,-0.00031,-0.00031,0.00015,6,3,0.6
44.423,2732394.841,0.00031,-0.00031,0.00015,6,3,0.6
44.441,2732394.86,-0.00092,-0.00031,0.00015,6,3,0.6
44.46,2732394.879,0.00031,0.00031,-0.00046,6,3,0.6
