AppTimestamp(s),Acc_X,Acc_Y,Acc_Z,Latitude,Longitude,Label
0,0.09751210078750766,0.001760897702104977,0.9886466314536615,0,0.6,0
1,0.09731118813979417,0.00035745847772224393,0.9988604797342631,0,0.6,0
2,0.09731634066493496,0.0008944334405821749,0.9962449359506202,0,0.6,0
3,0.09732418455684502,0.0009395863359334027,0.9961770784100477,0,0.6,0
4,0.09729210333988438,0.000822910005201446,0.9961741111605965,0,0.6,0
5,0.0973669595127926,0.0008509810700420302,0.9960711643883557,0,0.6,0
6,0.0973910204255131,0.0008918464297419355,0.9957191141742443,0,0.6,0
7,0.09739503057763318,0.000738696810679693,0.9953514551037896,0,0.6,0
8,0.09734826500405742,0.0008416435829203962,0.9963051485321697,0,0.6,0
9,0.09731465650876171,0.000920510306611798,0.9971602812797321,0,0.6,0
10,0.09732017440472494,0.000757410853906751,0.997970463965475,0,0.6,0
11,0.09722660418858967,0.0007761248971338037,0.9987372123065034,0,0.6,0
12,0.09720789014536262,0.0008509810700420302,0.9993262944438259,0,0.6,0
13,0.09709507287343595,0.0008441065235504628,0.9996417796770943,0,0.6,0
14,0.09721738390841933,0.0007948975438365222,0.9997473994854186,0,0.6,0
15,0.09722660418858967,0.00087905213488262,0.9991579657272419,0,0.6,0
16,0.0972287047444621,0.0008536545047887552,0.9986492281577213,0,0.6,0
17,0.09725467525343026,0.0008603380916555565,0.9985688835899194,0,0.6,0
18,0.09715174801568144,0.0008322670268149723,0.9991486087056284,0,0.6,0
19,0.09715232089455575,0.0009109423922185201,0.9995176359878415,0,0.6,0
20,0.09720789014536262,0.0008135529835879196,0.9997005753083672,0,0.6,0
21,0.09715174801568144,0.0008696951132690937,0.9997286463732077,0,0.6,0
22,0.0972191567632238,0.0007772706548824,0.999632211762701,0,0.6,0
23,0.09716110503729496,0.0008416240484284985,0.9995321489193236,0,0.6,0
24,0.0971423909940679,0.00087905213488262,0.9997286463732077,0,0.6,0
25,0.09719853312374908,0.0009071231997232043,0.9997660744596619,0,0.6,0
26,0.09719051281950891,0.0008727504672653453,0.9997849794625138,0,0.6,0
27,0.0971704620589085,0.0008322670268149723,0.9998315736109566,0,0.6,0
28,0.09718917610213557,0.0009071231997232043,0.9997380033948212,0,0.6,0
29,0.09718096483827063,0.0008918464297419355,0.9996894996501308,0,0.6,0
30,0.0971704620589085,0.0008603380916555619,0.9997099323299807,0,0.6,0
31,0.09722660418858967,0.0008696951132690937,0.999784788502889,0,0.6,0
32,0.09724531823181672,0.0008509810700420302,0.9997286463732077,0,0.6,0
33,0.09717141685703233,0.0009204903734568125,0.9995749238752712,0,0.6,0
34,0.09719853312374908,0.000897766178109678,0.9994666497680289,0,0.6,0
35,0.09720789014536262,0.0008135529835879196,0.9988306457811955,0,0.6,0
36,0.09727644465065355,0.0008727504672653453,0.9979431559418073,0,0.6,0
37,0.0972359612102032,0.000738696810679693,0.9975868651483041,0,0.6,0
38,0.09721724716697613,0.0008322670268149723,0.9979143218357938,0,0.6,0
39,0.09723825272570039,0.0009013944109802278,0.9984011799770757,0,0.6,0
40,0.0971423909940679,0.0008603380916555619,0.9988026333198305,0,0.6,0
41,0.09724531823181672,0.0008416240484284985,0.9991017845285771,0,0.6,0
42,0.09715232089455575,0.0008154625798355748,0.9993171483149922,0,0.6,0
43,0.0972359612102032,0.0008322865613068645,0.999504077854483,0,0.6,0
44,0.09712367695084086,0.0008696951132690937,0.999784788502889,0,0.6,0
45,0.09708624886438674,0.0008416240484284985,0.9996070050922318,0,0.6,0
46,0.09714277291331744,0.0008250105610738672,0.9995080880066032,0,0.6,0
47,0.09713303397245437,0.0008416240484284985,0.9995695770057778,0,0.6,0
48,0.09720789014536262,0.0008509810700420302,0.9996631472219131,0,0.6,0
49,0.09720006080074721,0.0008632024860270529,0.9996799516688926,0,0.6,0
50,0.09720789014536262,0.000822910005201446,0.9996725042435266,0,0.6,0
51,0.09708626839887863,0.0008416240484284985,0.9997286463732077,0,0.6,0
52,0.09725467525343026,0.0008322670268149723,0.9996818612651402,0,0.6,0
53,0.09713322493207915,0.0008727704004203308,0.9996417597439392,0,0.6,0
54,0.0971798386150139,0.000822910005201446,0.9996631472219131,0,0.6,0
55,0.09716110503729496,0.0008696951132690937,0.999204672697342,0,0.6,0
56,0.09714277291331744,0.000949134317171695,0.9986873802163645,0,0.6,0
57,0.09716110503729496,0.0009164802213367306,0.9983819971060434,0,0.6,0
58,0.0971423909940679,0.0008696951132690937,0.9988399832683171,0,0.6,0
59,0.09717141685703233,0.0008059145985972826,0.9993171483149922,0,0.6,0
60,0.0971704620589085,0.00087905213488262,0.9994385787031882,0,0.6,0
61,0.09715174801568144,0.0008884091564961463,0.9995882910490048,0,0.6,0
62,0.0971704620589085,0.0009071231997232043,0.9995508629625507,0,0.6,0
63,0.09723825272570039,0.0007963666173589847,0.9995558279127946,0,0.6,0
64,0.09711431992922732,0.00087905213488262,0.9996912182867536,0,0.6,0
65,0.09712367695084086,0.0009071231997232043,0.9996818612651402,0,0.6,0
66,0.09719051281950891,0.0008154825129905605,0.9996894996501308,0,0.6,0
67,0.09708624886438674,0.0009539083077908466,0.9996631472219131,0,0.6,0
68,0.0971423909940679,0.00087905213488262,0.9996631472219131,0,0.6,0
69,0.09716186887579405,0.0009204903734568125,0.9997085956126073,0,0.6,0
70,0.09707689184277322,0.000897766178109678,0.9997286463732077,0,0.6,0
71,0.09718917610213557,0.0007854819187473354,0.9996912182867536,0,0.6,0
72,0.09718917610213557,0.0008696951132690937,0.9996631472219131,0,0.6,0
73,0.09716186887579405,0.0008059145985972826,0.9995080880066032,0,0.6,0
74,0.09715174801568144,0.0008696951132690937,0.9995976480706185,0,0.6,0
75,0.0971704620589085,0.0008884091564961463,0.9991204985718041,0,0.6,0
76,0.09716188880894902,0.0007868186361206924,0.9984965601236836,0,0.6,0
77,0.0971704620589085,0.0008416240484284985,0.9982885050278756,0,0.6,0
78,0.09717981908052203,0.0008416240484284985,0.9988026137853386,0,0.6,0
79,0.0971423909940679,0.0008135529835879196,0.9992701718486368,0,0.6,0
80,0.0970663890634111,0.0008822984485036377,0.9994985400253648,0,0.6,0
81,0.0971423909940679,0.0008322670268149723,0.999625719135459,0,0.6,0
82,0.09713303397245437,0.00087905213488262,0.9996444331786861,0,0.6,0
83,0.09714277291331744,0.0008441065235504628,0.999632211762701,0,0.6,0
84,0.09707689184277322,0.0008322670268149723,0.9997286463732077,0,0.6,0
85,0.09705817779954617,0.0008603380916555619,0.9997380033948212,0,0.6,0
86,0.09711412896960257,0.0007581746924058099,0.999699047631369,0,0.6,0
87,0.09708626839887863,0.000822910005201446,0.9997099323299807,0,0.6,0
88,0.0971049629076138,0.0008509810700420357,0.9995882910490048,0,0.6,0
89,0.09718917610213557,0.000822910005201446,0.9996537902002994,0,0.6,0
90,0.0970568410821728,0.0008154625798355748,0.9996513077251774,0,0.6,0
91,0.09716110503729496,0.0008509810700420302,0.9995976480706185,0,0.6,0
92,0.09712367695084086,0.0007948389403608616,0.9997005753083672,0,0.6,0
93,0.09713322493207915,0.0008059145985972826,0.999765883500037,0,0.6,0
94,0.09715176755017334,0.0007761639661175773,0.9996538097347915,0,0.6,0
95,0.09712367695084086,0.0008322670268149723,0.9992234258095528,0,0.6,0
96,0.0971809847714256,0.0007868186361206924,0.9984489597495769,0,0.6,0
97,0.09709560588600027,0.0007200023019445219,0.9983071800021187,0,0.6,0
98,0.0971704620589085,0.0007761248971338037,0.9988118926689846,0,0.6,0
99,0.09712367695084086,0.0007761248971338037,0.9992795288702502,0,0.6,0
100,0.09711412896960257,0.0008154625798355748,0.9995462799315563,0,0.6,0
101,0.09717048159340039,0.0008416631174122777,0.9996444331786861,0,0.6,0
102,0.0971049629076138,0.0007761248971338037,0.9995976480706185,0,0.6,0
103,0.09715232089455575,0.0007486267111675175,0.9994603481004116,0,0.6,0
104,0.09713303397245437,0.0007106257458391087,0.999307580400599,0,0.6,0
105,0.0971423909940679,0.0007761248971338037,0.9992327242276907,0,0.6,0
106,0.09709503300712599,0.0007581746924058099,0.9991261687570714,0,0.6,0
107,0.09716110503729496,0.0008416435829203962,0.9991579071237663,0,0.6,0
108,0.09718917610213557,0.0007761248971338037,0.9991018040630689,0,0.6,0
109,0.09706640899656607,0.0007390986630842107,0.9992598604275625,0,0.6,0
110,0.09715174801568144,0.0007667678755202773,0.9994011506167342,0,0.6,0
111,0.09713303397245437,0.0007761248971338037,0.9995508629625507,0,0.6,0
112,0.09706755435565158,0.0007667678755202773,0.9996725042435266,0,0.6,0
113,0.09711412896960257,0.0007868186361206924,0.999699047631369,0,0.6,0
114,0.0971049629076138,0.0008135529835879196,0.9997754314812753,0,0.6,0
115,0.0971424105285598,0.0008041959619743879,0.9992889444953394,0,0.6,0
116,0.09716110503729496,0.000738696810679693,0.9985969741892519,0,0.6,0
117,0.09711412896960257,0.0007868186361206924,0.9983344238410276,0,0.6,0
118,0.09709560588600027,0.000738696810679693,0.9987932176947414,0,0.6,0
119,0.09715174801568144,0.0007480538322932193,0.9985968960512842,0,0.6,0
120,0.09715232089455575,0.0007486267111675175,0.9982485916756576,0,0.6,0
121,0.09715174801568144,0.0007012687242255824,0.9981388903545185,0,0.6,0
122,0.09719853312374908,0.0007012687242255824,0.9981294747294294,0,0.6,0
123,0.09715232089455575,0.0007772706548824,0.9981340956334182,0,0.6,0
124,0.09712367695084086,0.000645165663528182,0.9985501890811841,0,0.6,0
125,0.09712367695084086,0.0007667678755202773,0.9986810506423304,0,0.6,0
126,0.09711431992922732,0.000719982767452635,0.9983725814809541,0,0.6,0
127,0.09712369688399584,0.0006245029550696951,0.9980482036685835,0,0.6,0
128,0.09712367695084086,0.0006638406377714663,0.9981107997551859,0,0.6,0
129,0.09709503300712599,0.0005672350007949211,0.9982009115689312,0,0.6,0
130,0.09713303397245437,0.0006076985080902977,0.9984848657403163,0,0.6,0
131,0.09707689184277322,0.0006919117026120507,0.9990643173731392,0,0.6,0
132,0.0970769113772651,0.0006545226851417138,0.9995134348760967,0,0.6,0
133,0.09711412896960257,0.0005672549339499012,0.9996417597439392,0,0.6,0
134,0.09705817779954617,0.0007387163451715798,0.9995321489193236,0,0.6,0
135,0.09707689184277322,0.0006638406377714663,0.9992328023656581,0,0.6,0
136,0.09715232089455575,0.0005863309632715059,0.9984965999899935,0,0.6,0
137,0.09711433946371921,0.0006545226851417138,0.9984193275200379,0,0.6,0
138,0.09701139269147852,0.0006076985080902923,0.9990082924504093,0,0.6,0
139,0.09703950282530287,0.0006357891074227689,0.9995134348760967,0,0.6,0
140,0.09700910117598133,0.0006531668319395632,0.9995080880066032,0,0.6,0
141,0.09701139269147852,0.000757410853906751,0.9994760067896425,0,0.6,0
142,0.09705817779954617,0.0006919117026120507,0.9996912182867536,0,0.6,0
143,0.0970663890634111,0.0006913388237377525,0.9997372395563222,0,0.6,0
144,0.09697396460502442,0.0006077180425821846,0.9998315736109566,0,0.6,0
145,0.09705817779954617,0.0006357695729308821,0.9997473604164349,0,0.6,0
146,0.09707689184277322,0.0006825546809985244,0.999822216589343,0,0.6,0
147,0.0969900450798147,0.0007581746924058099,0.999794527443752,0,0.6,0
148,0.09708624886438674,0.0006732171938768795,0.999784788502889,0,0.6,0
149,0.09706753482115969,0.000757410853906751,0.9997754314812753,0,0.6,0
150,0.09699955319474304,0.0006627347463328411,0.999765883500037,0,0.6,0
151,0.09706755435565158,0.0006825742154904112,0.9997286463732077,0,0.6,0
152,0.09706755435565158,0.0007106257458391087,0.9996818612651402,0,0.6,0
153,0.09707593704464938,0.0006627148131778556,0.999794527443752,0,0.6,0
154,0.09706753482115969,0.0006919117026120507,0.9996444331786861,0,0.6,0
155,0.0970394637563191,0.0007761248971338037,0.9990269869591444,0,0.6,0
156,0.09712367695084086,0.0007480733667851061,0.9982791284717701,0,0.6,0
157,0.09700910117598133,0.0006722428612611677,0.9980863756603817,0,0.6,0
158,0.097002035669865,0.0006638601722633532,0.998596915585776,0,0.6,0
159,0.09703012626919746,0.0006638601722633532,0.9990737329982283,0,0.6,0
160,0.09708548502588768,0.0006722428612611677,0.9993171283818372,0,0.6,0
161,0.09706753482115969,0.000719982767452635,0.9995321489193236,0,0.6,0
162,0.0970394637563191,0.0007012687242255824,0.9995695770057778,0,0.6,0
163,0.09703776505285121,0.0006817908424994601,0.999565375894033,0,0.6,0
164,0.09699273725172712,0.0007293397890661668,0.9996912182867536,0,0.6,0
165,0.09702074971309205,0.0007667678755202773,0.9995976480706185,0,0.6,0
166,0.09705686101532779,0.0006722827275711389,0.9996226637814627,0,0.6,0
167,0.0970488598469164,0.0006264125513173503,0.99952279189771,0,0.6,0
168,0.09695528963078111,0.0006825742154904112,0.9996912182867536,0,0.6,0
169,0.09699955319474304,0.0006531468987845776,0.9995558279127946,0,0.6,0
170,0.0970769113772651,0.0007293397890661668,0.9994011506167342,0,0.6,0
171,0.09702074971309205,0.000719982767452635,0.9991952961412367,0,0.6,0
172,0.09709560588600027,0.0006544836161579401,0.9991111220156986,0,0.6,0
173,0.09702819713845791,0.0007677426067990933,0.9990784687171897,0,0.6,0
174,0.09707689184277322,0.0006544836161579401,0.99915794619275,0,0.6,0
175,0.0970769113772651,0.0006170750641957163,0.9986156296290032,0,0.6,0
176,0.09714277291331744,0.000691358756892738,0.9978286200332578,0,0.6,0
177,0.0970769113772651,0.0006451461290363006,0.9977833626021881,0,0.6,0
178,0.09701139269147852,0.0005983805554605451,0.9986156100945112,0,0.6,0
179,0.09703010673470557,0.000673197659384998,0.999185958654115,0,0.6,0
180,0.09697094911733811,0.0005959786102847261,0.9995081278729131,0,0.6,0
181,0.09703014580368935,0.0006452242670038426,0.9996631472219131,0,0.6,0
182,0.09698347790257301,0.0005891602752902159,0.9995789926308669,0,0.6,0
183,0.09706642892972106,0.0005958988776647838,0.9995749438084263,0,0.6,0
184,0.09703010673470557,0.0006825742154904112,0.9996351152260562,0,0.6,0
185,0.097002035669865,0.0005890039993551212,0.9996537902002994,0,0.6,0
186,0.09700910117598133,0.0007104347862143427,0.9995558279127946,0,0.6,0
187,0.09689912796660806,0.0006357695729308821,0.9995602199841643,0,0.6,0
188,0.09702074971309205,0.0006544836161579401,0.9994479357248018,0,0.6,0
189,0.0970377451196962,0.0006245029550696951,0.99946989608165,0,0.6,0
190,0.09693659512204596,0.0006357891074227689,0.9994760067896425,0,0.6,0
191,0.097039483290811,0.0006544836161579401,0.9993730795518936,0,0.6,0
192,0.09705817779954617,0.000673197659384998,0.999504077854483,0,0.6,0
193,0.09708548502588768,0.0006435989175462853,0.9994889920441266,0,0.6,0
194,0.09711431992922732,0.0006357695729308821,0.9994760263241345,0,0.6,0
195,0.09700205520435688,0.000673197659384998,0.9989148199067334,0,0.6,0
196,0.0970663890634111,0.0006818107756544457,0.9980481837354284,0,0.6,0
197,0.09699267864825147,0.0006544836161579401,0.9977833626021881,0,0.6,0
198,0.09709560588600027,0.0006638406377714663,0.998335133860008,0,0.6,0
199,0.09699955319474304,0.0006817908424994601,0.9990975846128214,0,0.6,0
200,0.097002035669865,0.0007293397890661668,0.9993450084870531,0,0.6,0
201,0.09702074971309205,0.0006264516203011295,0.9994198646599612,0,0.6,0
202,0.09699267864825147,0.0006544836161579401,0.9994947208328695,0,0.6,0
203,0.0970186690903746,0.0006245029550696951,0.9996608557064158,0,0.6,0
204,0.097002035669865,0.0007012882587174638,0.9995508629625507,0,0.6,0
205,0.09696460758341087,0.000673197659384998,0.9996350761570725,0,0.6,0
206,0.09696136126978985,0.0006722627944161534,0.999794527443752,0,0.6,0
207,0.09696462711790277,0.0006264125513173557,0.9997005753083672,0,0.6,0
208,0.09703010673470557,0.0006638406377714663,0.9996444331786861,0,0.6,0
209,0.09706753482115969,0.0005890235338470134,0.9996631472219131,0,0.6,0
210,0.09700910117598133,0.0005958590113548126,0.9996704036876541,0,0.6,0
211,0.09695525056179734,0.0006825546809985244,0.9997567174380484,0,0.6,0
212,0.09701139269147852,0.0006358086419146557,0.9998128595677295,0,0.6,0
213,0.0970186690903746,0.0006913388237377525,0.999699047631369,0,0.6,0
214,0.09699269818274334,0.0006638601722633532,0.9996631472219131,0,0.6,0
215,0.09692719903144865,0.0006919117026120507,0.9991672641453798,0,0.6,0
216,0.09699957312789802,0.0007009067381310358,0.9985539078105783,0,0.6,0
217,0.09706753482115969,0.000673197659384998,0.9982977839115216,0,0.6,0
218,0.09707689184277322,0.0006732171938768795,0.9987932176947414,0,0.6,0
219,0.09711412896960257,0.0006340509363079929,0.9992694084088007,0,0.6,0
220,0.09701139269147852,0.0006451461290363006,0.9995321489193236,0,0.6,0
221,0.09702076924758395,0.0005983805554605451,0.9996818612651402,0,0.6,0
222,0.097002035669865,0.0005889844648632398,0.999784788502889,0,0.6,0
223,0.09699955319474304,0.0006149749069863883,0.999699047631369,0,0.6,0
224,0.09705817779954617,0.0006638406377714663,0.9996725042435266,0,0.6,0
225,0.09697398413951629,0.0006451461290363006,0.9997660744596619,0,0.6,0
226,0.09701139269147852,0.0006825546809985244,0.9997941455245025,0,0.6,0
227,0.09700910117598133,0.0006340708694629785,0.9997849794625138,0,0.6,0
228,0.09708624886438674,0.0006358086419146557,0.9998315736109566,0,0.6,0
229,0.09712367695084086,0.0006638406377714663,0.9997005753083672,0,0.6,0
230,0.09704731303408949,0.0006245428213796663,0.9995176359878415,0,0.6,0
231,0.09698334116112982,0.0006544836161579401,0.9994947403673614,0,0.6,0
232,0.09701139269147852,0.0006451265945444138,0.9995976480706185,0,0.6,0
233,0.09699000521350475,0.00054811910516334,0.9996799516688926,0,0.6,0
234,0.09701143176046229,0.00030862543731134353,0.9995415059409372,0,0.6,0
235,0.09697396460502442,0.0009165388248123911,0.9992048485077691,0,0.6,0
236,0.09696462711790277,0.0005422579602712633,0.9985876757711138,0,0.6,0
237,0.09700910117598133,0.0006340509363079929,0.998029067839797,0,0.6,0
238,0.09704882077793263,0.0005796665122334871,0.9982603753595592,0,0.6,0
239,0.09707689184277322,0.0005702704216361817,0.9980827091558536,0,0.6,0
240,0.09704729310093449,0.0005863309632715059,0.9976281124272536,0,0.6,0
241,0.09708624886438674,0.0005796665122334871,0.9974465098241012,0,0.6,0
242,0.09696462711790277,0.0005328618696739526,0.997427795780874,0,0.6,0
243,0.09701864915721962,0.000519495094603443,0.9975421805961088,0,0.6,0
244,0.09709560588600027,0.0005609134000226554,0.9981575067252861,0,0.6,0
245,0.09686169988015395,0.0005422188912874843,0.9984754501152272,0,0.6,0
246,0.09699267864825147,0.0005234853135685394,0.9983726400844298,0,0.6,0
247,0.09687546930495519,0.0004335831966137811,0.9976662644858968,0,0.6,0
248,0.09703012626919746,0.0005702899561280685,0.9977178048474179,0,0.6,0
249,0.09696138120294484,0.0005481390383183255,0.9982963315818492,0,0.6,0
250,0.09690848498822158,0.0005328618696739526,0.9987558482117629,0,0.6,0
251,0.09693653651857029,0.0005422188912874843,0.9992795093357583,0,0.6,0
252,0.09693653651857029,0.000598341486476766,0.9995415254754291,0,0.6,0
253,0.09695187308801652,0.0005003791989718673,0.9996131357333794,0,0.6,0
254,0.0969459130746757,0.0005422384257793657,0.9997567174380484,0,0.6,0
255,0.09693653651857029,0.0005609134000226554,0.9993356709999315,0,0.6,0
256,0.09696464665239465,0.0005983610209686529,0.9988306262467035,0,0.6,0
257,0.09702819713845791,0.0005576870195566179,0.99854431996303,0,0.6,0
258,0.0969458935401838,0.0005234853135685394,0.9990363635152499,0,0.6,0
259,0.09689912796660806,0.0005141478264468999,0.9993356514654395,0,0.6,0
260,0.09693277712553994,0.0005481390383183255,0.9994985400253648,0,0.6,0
261,0.09697398413951629,0.0005609524690064237,0.9995976480706185,0,0.6,0
262,0.0969084654537297,0.0004954337832198419,0.9995321489193236,0,0.6,0
263,0.09693275719238495,0.0005672150676399247,0.9996131158002243,0,0.6,0
264,0.09691784200983511,0.000504829873817142,0.999784788502889,0,0.6,0
265,0.09690848498822158,0.0005141673609387868,0.9997286463732077,0,0.6,0
266,0.0969458935401838,0.0005702899561280685,0.9996725042435266,0,0.6,0
267,0.09690411324867006,0.0005386109902350134,0.9997467875375604,0,0.6,0
268,0.09688979047948643,0.0005328814041658394,0.9998128595677295,0,0.6,0
269,0.09692717949695676,0.0005515563784091237,0.9998128595677295,0,0.6,0
270,0.09687544937180018,0.0005481390383183255,0.9997372395563222,0,0.6,0
271,0.09688975141050266,0.0005048494083090288,0.9997941455245025,0,0.6,0
272,0.09688975141050266,0.0005609329345145368,0.999784788502889,0,0.6,0
273,0.09696140113609983,0.0005385910570800278,0.9997563355187988,0,0.6,0
274,0.09700207473884877,0.0006170750641957163,0.999625719135459,0,0.6,0
275,0.09690850452271348,0.000617055529703824,0.9992420812493044,0,0.6,0
276,0.09697090925102815,0.0005290430758417354,0.9984584678645054,0,0.6,0
277,0.09691782247534324,0.0005422188912874843,0.998428743145127,0,0.6,0
278,0.09693653651857029,0.0005702704216361817,0.998681109245806,0,0.6,0
279,0.09689454533427679,0.0005672350007949103,0.9991262086233813,0,0.6,0
280,0.09685234285854043,0.0005516149818847897,0.9993450084870531,0,0.6,0
281,0.0969459130746757,0.0005235048480604262,0.9995321489193236,0,0.6,0
282,0.09691784200983511,0.0005235243825523131,0.9995134348760967,0,0.6,0
283,0.09688501728619348,0.000529063008996721,0.9997085956126073,0,0.6,0
284,0.09699267864825147,0.000504829873817142,0.9997380033948212,0,0.6,0
285,0.09693655605306219,0.0005516149818847897,0.9997192893515943,0,0.6,0
286,0.09694593260916759,0.0004860962960982025,0.9997005753083672,0,0.6,0
287,0.09690409331551508,0.0005481789046283021,0.9995749238752712,0,0.6,0
288,0.0968523623930323,0.0005235048480604262,0.9997099323299807,0,0.6,0
289,0.09696462711790277,0.0004860767616063156,0.9996725042435266,0,0.6,0
290,0.0968945254011218,0.0004813031696502682,0.9995558279127946,0,0.6,0
291,0.09692719903144865,0.000504810339325255,0.9995134348760967,0,0.6,0
292,0.09693653651857029,0.0005141478264468999,0.9996631472219131,0,0.6,0
293,0.09698047716542142,0.0005863110301165148,0.9995940198377478,0,0.6,0
294,0.09688979047948643,0.0005702899561280685,0.9996163621138454,0,0.6,0
295,0.09695527009628924,0.00045806430024138644,0.999345028021545,0,0.6,0
296,0.09699269818274334,0.0005235243825523131,0.9986343046032464,0,0.6,0
297,0.09695183322170654,0.000500458931591815,0.998353559669814,0,0.6,0
298,0.09693653651857029,0.0005142064299225605,0.9987651466299007,0,0.6,0
299,0.09694595214365949,0.0004860962960982025,0.9991953156757284,0,0.6,0
300,0.09695185315486153,0.0004622271403286636,0.9993553203067904,0,0.6,0
301,0.09696462711790277,0.0005235634515360922,0.9995508629625507,0,0.6,0
302,0.097002035669865,0.0004393893259981021,0.9997660744596619,0,0.6,0
303,0.09688499735303849,0.0005290430758417354,0.9997276915750839,0,0.6,0
304,0.09700205520435688,0.0004767588089765576,0.999625719135459,0,0.6,0
305,0.09696462711790277,0.0004954728522036156,0.9992982429134774,0,0.6,0
306,0.09682427179369985,0.0005141478264468999,0.999307580400599,0,0.6,0
307,0.09688499735303849,0.0005099471133651507,0.999212120521371,0,0.6,0
308,0.09692719903144865,0.00042999323540080214,0.9993169374222125,0,0.6,0
309,0.09686173894913773,0.0005141478264468999,0.99920465316285,0,0.6,0
310,0.09689454533427679,0.0004622271403286636,0.9990211808297601,0,0.6,0
311,0.09692719903144865,0.0005234853135685394,0.9992888663573718,0,0.6,0
312,0.0968710373672756,0.0005235439170441999,0.9995789340273913,0,0.6,0
313,0.09690407338236008,0.0005195150277584286,0.9996417597439392,0,0.6,0
314,0.09691784200983511,0.0005047908048333682,0.9996444331786861,0,0.6,0
315,0.09699269818274334,0.0005141673609387868,0.9992982233789854,0,0.6,0
316,0.09690850452271348,0.000504829873817142,0.9986717326897004,0,0.6,0
317,0.09693273725922996,0.0004908710840435461,0.9983535995361239,0,0.6,0
318,0.09695527009628924,0.000504810339325255,0.9987558482117629,0,0.6,0
319,0.0968992256390675,0.00039262375242234664,0.9992796070082178,0,0.6,0
320,0.09688501728619348,0.0005387505223199178,0.9995463197978662,0,0.6,0
321,0.0968898100139783,0.00040194170505210465,0.9995977457430778,0,0.6,0
322,0.09689910843211617,0.0005422188912874843,0.9996444917821615,0,0.6,0
323,0.09687546930495519,0.000414507167292182,0.9996035678189862,0,0.6,0
324,0.09687107643625938,0.00044866820964408643,0.9995602199841643,0,0.6,0
325,0.09688977094499453,0.0004580252312576182,0.9996818612651402,0,0.6,0
326,0.09692717949695676,0.00046736271837925764,0.9996725042435266,0,0.6,0
327,0.09688499735303849,0.0005481789046283021,0.9997085956126073,0,0.6,0
328,0.09693655605306219,0.0004767197399927839,0.9998409306325702,0,0.6,0
329,0.09679622026335115,0.0004860962960982025,0.9998409306325702,0,0.6,0
330,0.09683725744684701,0.0005385910570800278,0.9996704036876541,0,0.6,0
331,0.09689912796660806,0.0005141478264468999,0.9997005948428591,0,0.6,0
332,0.09690852405720536,0.0005047908048333682,0.9997099323299807,0,0.6,0
333,0.0967705013107989,0.0004908910171985317,0.9996704036876541,0,0.6,0
334,0.0968710373672756,0.00046736271837925764,0.9997286463732077,0,0.6,0
335,0.09678690231072139,0.0005329400076415054,0.9992888858918638,0,0.6,0
336,0.0968523819275242,0.000420616679295389,0.9987184787287845,0,0.6,0
337,0.09694228524046826,0.0005100069128301128,0.9983344637073375,0,0.6,0
338,0.09687105690176748,0.0005141282919550131,0.9986998428235249,0,0.6,0
339,0.09689914750109996,0.00042059714480350213,0.999204672697342,0,0.6,0
340,0.09688503721934846,0.00047179505472194156,0.9995271839690797,0,0.6,0
341,0.09691784200983511,0.0004860767616063156,0.9997005753083672,0,0.6,0
342,0.0968149343065782,0.0004860767616063156,0.9997473604164349,0,0.6,0
343,0.09687550917126515,0.000519495094603443,0.9997181435938457,0,0.6,0
344,0.09686169988015395,0.0005422384257793657,0.9998970727622513,0,0.6,0
345,0.09689914750109996,0.0004486877441359733,0.9997380033948212,0,0.6,0
346,0.0969459130746757,0.0005141868954306682,0.9996912182867536,0,0.6,0
347,0.09689454533427679,0.0004908910171985317,0.9996226637814627,0,0.6,0
348,0.09687105690176748,0.000429934631925147,0.9994666497680289,0,0.6,0
349,0.09691786154432701,0.00042999323540080214,0.9993543850431585,0,0.6,0
350,0.09691368116306336,0.0004049791192088698,0.9995176359878415,0,0.6,0
351,0.09686171941464583,0.00040196123954399146,0.9997286463732077,0,0.6,0
352,0.09688979047948643,0.00045806430024138644,0.9996725042435266,0,0.6,0
353,0.09688499735303849,0.0005386109902350242,0.9996704036876541,0,0.6,0
354,0.0968617584836296,0.0004860962960982025,0.9996163621138454,0,0.6,0
355,0.0969459130746757,0.00047681741245222356,0.9993544241121423,0,0.6,0
356,0.0968523819275242,0.0005889844648632398,0.9986717717586842,0,0.6,0
357,0.09692320921114664,0.000462207207173678,0.9982486116088127,0,0.6,0
358,0.09692717949695676,0.00041124012318997585,0.9984566970030164,0,0.6,0
359,0.09693655605306219,0.00045804476574949957,0.9984754501152272,0,0.6,0
360,0.09694228524046826,0.00033820305000576914,0.9981818355396096,0,0.6,0
361,0.09688975141050266,0.00039260421793045977,0.9980453006038913,0,0.6,0
362,0.09692723810043241,0.0003645526875817623,0.9980920661774669,0,0.6,0
363,0.09697092918418315,0.0004240950148404455,0.9981340956334182,0,0.6,0
364,0.09691782247534324,0.00039264328691423345,0.9986156100945112,0,0.6,0
365,0.09695525056179734,0.00038320812733316523,0.9992608148270232,0,0.6,0
366,0.09685234285854043,0.0004019221705602178,0.9994947208328695,0,0.6,0
367,0.09686594125687188,0.00037629530918401613,0.9990117125811417,0,0.6,0
368,0.09683366788429715,0.0004393502570143284,0.9983726400844298,0,0.6,0
369,0.09689910843211617,0.00038320812733316523,0.9982230058765807,0,0.6,0
370,0.0968277293987637,0.00041454703360214773,0.9980864155266916,0,0.6,0
371,0.09692719903144865,0.0003832276618250466,0.998007911586421,0,0.6,0
372,0.09689916703559183,0.0004018831015764495,0.9981107997551859,0,0.6,0
373,0.09688041392338101,0.0003551370624925809,0.998568942193395,0,0.6,0
374,0.09691364129675337,0.00041454703360214773,0.9988494566995557,0,0.6,0
375,0.09688979047948643,0.00033650115723306485,0.9986810311078385,0,0.6,0
376,0.09688041392338101,0.000336481622741178,0.9979891780087019,0,0.6,0
377,0.09686596119002686,0.00038590308988727064,0.997742688202113,0,0.6,0
378,0.0968617584836296,0.00039254561445480464,0.9982603558250674,0,0.6,0
379,0.0968243303971755,0.00025230749720319876,0.9991111610846825,0,0.6,0
380,0.09681820135068041,0.00029052294327925324,0.9995176359878415,0,0.6,0
381,0.09686169988015395,0.00039254561445480464,0.9997192893515943,0,0.6,0
382,0.09680557728496467,0.00043933072252244697,0.9998690016974107,0,0.6,0
383,0.09687544937180018,0.0003954311379705774,0.9998709112936583,0,0.6,0
384,0.09682429132819172,0.00036459175656553596,0.9998877157406377,0,0.6,0
385,0.09683370695328092,0.00040194170505210465,0.9998409306325702,0,0.6,0
386,0.09679622026335115,0.000420616679295389,0.9998035025461159,0,0.6,0
387,0.09681824121699037,0.00042399534906551763,0.9998231713874669,0,0.6,0
388,0.09684300537141878,0.0003925651489466915,0.9998690016974107,0,0.6,0
389,0.09685234285854043,0.0004486877441359733,1.0,0,0.6,0
390,0.09677042157817896,0.000414507167292182,0.9998995552373733,0,0.6,0
391,0.09690850452271348,0.000364513618597994,0.9998596446757971,0,0.6,0
392,0.09689914750109996,0.00039264328691423345,0.9998596446757971,0,0.6,0
393,0.09688501728619348,0.00045269909224535684,0.9994412521379351,0,0.6,0
394,0.09678694137970516,0.0003832276618250466,0.9993730795518936,0,0.6,0
395,0.09680557728496467,0.0004393893259981021,0.999204672697342,0,0.6,0
396,0.0967705013107989,0.00034771116493409037,0.9986205443476966,0,0.6,0
397,0.0968804334578729,0.0004487072786278601,0.9982510574069293,0,0.6,0
398,0.09686171941464583,0.0004393893259981021,0.9987184787287845,0,0.6,0
399,0.09683362881531338,0.0004300713733683495,0.999242100783796,0,0.6,0
400,0.09680863343628711,0.00037629530918401613,0.9995080880066032,0,0.6,0
401,0.09680563588844032,0.00046738225287114445,0.9996444331786861,0,0.6,0
402,0.09683368741878902,0.0004954337832198419,0.9997099323299807,0,0.6,0
403,0.09675881171138892,0.00040194170505210465,0.9996725042435266,0,0.6,0
404,0.09688507708565842,0.00045267915909037124,0.9997849794625138,0,0.6,0
405,0.0968055382159809,0.0004674017873630313,0.999784788502889,0,0.6,0
406,0.09690407338236008,0.0004049392528988986,0.99986136331242,0,0.6,0
407,0.09681495384107007,0.0004393502570143284,0.9998315736109566,0,0.6,0
408,0.09679625933233492,0.00046738225287114445,0.9997567174380484,0,0.6,0
409,0.09675883124588079,0.0004860962960982025,0.9996537902002994,0,0.6,0
410,0.09680861350313212,0.00040499905236385535,0.9995844718565093,0,0.6,0
411,0.09680563588844032,0.00042059714480350213,0.9995789340273913,0,0.6,0
412,0.09679627886682679,0.000364513618597994,0.9995508629625507,0,0.6,0
413,0.0968468452943953,0.0005195349609134197,0.9996226637814627,0,0.6,0
414,0.09677750622012407,0.00044864867515220504,0.9995882910490048,0,0.6,0
415,0.096842966302435,0.0004580056967657313,0.9991391735460473,0,0.6,0
416,0.09685234285854043,0.00041127919217374953,0.9984941836929462,0,0.6,0
417,0.0968468253612403,0.0004908511508885606,0.9981531716627396,0,0.6,0
418,0.09681495384107007,0.00042997370090891527,0.998615668697987,0,0.6,0
419,0.09686171941464583,0.00044866820964408643,0.9990457010023716,0,0.6,0
420,0.09681820135068041,0.00032857533614753445,0.999374416269267,0,0.6,0
421,0.09678694137970516,0.000364513618597994,0.99952279189771,0,0.6,0
422,0.09679620072885925,0.00041125965768186267,0.9997099323299807,0,0.6,0
423,0.09680561635394844,0.00037383157122774667,0.9995695770057778,0,0.6,0
424,0.09678000942572722,0.00042405514853047433,0.999632211762701,0,0.6,0
425,0.09676818826749434,0.0003550784590169204,0.9994479357248018,0,0.6,0
426,0.09678692184521327,0.0004580252312576182,0.9993917935951208,0,0.6,0
427,0.09683729731315699,0.0005099869796751273,0.9994603481004116,0,0.6,0
428,0.09689916703559183,0.00040184403259267584,0.9994479357248018,0,0.6,0
429,0.09681495384107007,0.0004113377956494046,0.999204672697342,0,0.6,0
430,0.096741877300239,0.000414507167292182,0.9991739684627279,0,0.6,0
431,0.09679620072885925,0.0003831495238575047,0.9993917935951208,0,0.6,0
432,0.09683364834980525,0.0003550979935088072,0.9995976480706185,0,0.6,0
433,0.09670364550897585,0.00044315111100705904,0.9995940198377478,0,0.6,0
434,0.09680561635394844,0.0004393697915062153,0.9995789340273913,0,0.6,0
435,0.09673072111205644,0.00043001276989268895,0.9993824365735072,0,0.6,0
436,0.09683368741878902,0.0003925651489466915,0.9986530967844411,0,0.6,0
437,0.09677048137764391,0.0004145669667571333,0.998162759510288,0,0.6,0
438,0.09674947422426726,0.0004674017873630313,0.9982885050278756,0,0.6,0
439,0.09682427179369985,0.000504829873817142,0.9986249866506167,0,0.6,0
440,0.0967800293588822,0.00042407508168545993,0.9988781205764256,0,0.6,0
441,0.09670268911619963,0.00040194170505210465,0.9988306262467035,0,0.6,0
442,0.09678686324173759,0.00037387064021152035,0.9990830900198417,0,0.6,0
443,0.09678955740696552,0.0004526592259353857,0.9991834566445013,0,0.6,0
444,0.09674021487511315,0.00041127919217374953,0.9990830704853499,0,0.6,0
445,0.09679625933233492,0.00041127919217374953,0.9993262944438259,0,0.6,0
446,0.0968617584836296,0.0004206557482791627,0.9994666497680289,0,0.6,0
447,0.09682770946560873,0.0004049791192088698,0.9996704036876541,0,0.6,0
448,0.09675888984935646,0.0004674213218549127,0.9996725042435266,0,0.6,0
449,0.09674945468977539,0.00042067528277104407,0.9995976480706185,0,0.6,0
450,0.0968086733025971,0.00041452710044716213,0.9996131158002243,0,0.6,0
451,0.09676814919851054,0.0004487072786278601,0.9995976480706185,0,0.6,0
452,0.09672140315942668,0.0004674408563467996,0.9997286463732077,0,0.6,0
453,0.09686590139056189,0.00038588315673228503,0.9996417597439392,0,0.6,0
454,0.09678690231072139,0.00033646208824929117,0.9995415059409372,0,0.6,0
455,0.09675890938384833,0.00033646208824929117,0.999298301516953,0,0.6,0
456,0.09674011720265374,0.00038320812733316523,0.9985128195982057,0,0.6,0
457,0.09682774933191869,0.00037635510864897283,0.9982962917155392,0,0.6,0
458,0.09678690231072139,0.0002990730707789542,0.9985314945724489,0,0.6,0
459,0.09676812966401867,0.00032710506663576484,0.9991766211669934,0,0.6,0
460,0.09672274147145245,0.000376394974958944,0.9993171483149922,0,0.6,0
461,0.09675885078037269,0.00032710506663576484,0.9995789340273913,0,0.6,0
462,0.09682431086268362,0.00037383157122774667,0.999504077854483,0,0.6,0
463,0.09679906552189384,0.00038590308988727064,0.9995749238752712,0,0.6,0
464,0.09680559681945655,0.00029903400179518054,0.9996070050922318,0,0.6,0
465,0.09667469618932657,0.0003738511057196335,0.9995789340273913,0,0.6,0
466,0.09678690231072139,0.0003925651489466915,0.9996163621138454,0,0.6,0
467,0.09676091346325064,0.0003954311379705774,0.9996894996501308,0,0.6,0
468,0.09681495384107007,0.0003364230192655229,0.9996070050922318,0,0.6,0
469,0.09677754528910787,0.0004392916535386733,0.9996070050922318,0,0.6,0
470,0.09680865336944211,0.0004049791192088698,0.9994126081942203,0,0.6,0
471,0.09674013673714561,0.0002897160491654225,0.9996070050922318,0,0.6,0
472,0.09680557728496467,0.0003551565969844623,0.999485363811256,0,0.6,0
473,0.09678959727327548,0.0003477310980890759,0.9996513077251774,0,0.6,0
474,0.09683362881531338,0.0004580056967657313,0.9995321489193236,0,0.6,0
475,0.09679623979784302,0.00042059714480350213,0.9991673227488554,0,0.6,0
476,0.09682429132819172,0.0002803590275518962,0.9984847680678569,0,0.6,0
477,0.09680863343628711,0.0003763152423390017,0.9981722676252164,0,0.6,0
478,0.09681499291005384,0.0003178261829897805,0.9984193665890216,0,0.6,0
479,0.0968523623930323,0.000448726813119747,0.9990082143124418,0,0.6,0
480,0.09680865336944211,0.0003954112048155918,0.9992980324193608,0,0.6,0
481,0.09674957189672671,0.0003364425537574097,0.9988025356473711,0,0.6,0
482,0.09676820780198621,0.00030843009239248055,0.9981855973246186,0,0.6,0
483,0.09683362881531338,0.0002522293592356568,0.9980733912032237,0,0.6,0
484,0.09684680542808531,0.0002999911918976087,0.9979240998456406,0,0.6,0
485,0.09682429132819172,0.00033646208824929117,0.9980079311209128,0,0.6,0
486,0.09679622026335115,0.0003083714889168254,0.9985034821110841,0,0.6,0
487,0.09671319349021415,0.00036682706056566605,0.999078528516655,0,0.6,0
488,0.0968149147720863,0.00035511752800069407,0.9992795484047421,0,0.6,0
489,0.09673081878451588,0.00028973558365730934,0.998690388129452,0,0.6,0
490,0.09678000942572722,0.0003572591461723881,0.9983058396967776,0,0.6,0
491,0.09677752575461597,0.0003083714889168254,0.9980546966944887,0,0.6,0
492,0.09683366788429715,0.00034581910986282286,0.9981014818025562,0,0.6,0
493,0.09678955740696552,0.0003096189057558434,0.99809588377531,0,0.6,0
494,0.09678688277622949,0.0002616840533086119,0.9984473009124191,0,0.6,0
495,0.0968149343065782,0.0002896965146735411,0.9986997646855573,0,0.6,0
496,0.09683364834980525,0.000420616679295389,0.9983538479032352,0,0.6,0
497,0.09682770946560873,0.0003477310980890759,0.9981817558069896,0,0.6,0
498,0.09676818826749434,0.0002430286135572144,0.9986250061851086,0,0.6,0
499,0.0968149147720863,0.0003177675795141254,0.9992233867405691,0,0.6,0
500,0.09680863343628711,0.00027140704764768293,0.9994317240898518,0,0.6,0
501,0.09674945468977539,0.0003084105579005937,0.9988960277255389,0,0.6,0
502,0.09677756482359974,0.0003177285105303517,0.9993450670905287,0,0.6,0
503,0.09675140534832231,0.0003476712986241246,0.9997085956126073,0,0.6,0
504,0.0968149343065782,0.0002803980965356699,0.9996537902002994,0,0.6,0
505,0.09679622026335115,0.0003364230192655229,0.9994479357248018,0,0.6,0
506,0.0968523819275242,0.0002896965146735411,0.9992140297189556,0,0.6,0
507,0.09681820135068041,0.00038588315673228503,0.999212100588216,0,0.6,0
508,0.09685234285854043,0.0003178261829897805,0.999185958654115,0,0.6,0
509,0.09675877264240514,0.00034583864435470973,0.9991766016325014,0,0.6,0
510,0.09678004929203719,0.00033822298316075474,0.9991261886902264,0,0.6,0
511,0.09673074064654831,0.00030846916137625423,0.9992140101844637,0,0.6,0
512,0.0968617584836296,0.00024297001008155388,0.9994572927464154,0,0.6,0
513,0.09677998949257224,0.0003954311379705774,0.9994221561754585,0,0.6,0
514,0.09673076018104021,0.0003178261829897805,0.999504077854483,0,0.6,0
515,0.09674955236223481,0.0002896574456897674,0.9991859977230987,0,0.6,0
516,0.09678686324173759,0.0002989949328114123,0.9985221766198192,0,0.6,0
517,0.09679912532135879,0.0003190871543741934,0.9982008916357763,0,0.6,0
518,0.09682431086268362,0.0002710410749221382,0.9984193470545298,0,0.6,0
519,0.09676824687096999,0.00034581910986282286,0.9990457205368635,0,0.6,0
520,0.096741857367084,0.00025233101832607835,0.9993266763630755,0,0.6,0
521,0.09674011720265374,0.0002616254498329568,0.9994198646599612,0,0.6,0
522,0.09681495384107007,0.00032710506663576484,0.9995882910490048,0,0.6,0
523,0.09677046144448893,0.00034771116493409037,0.999565375894033,0,0.6,0
524,0.09675887031486456,0.00030846916137625423,0.9997473604164349,0,0.6,0
525,0.09674949375875916,0.00025230749720319876,0.9995789340273913,0,0.6,0
526,0.09674013673714561,0.0003457800408790492,0.999504077854483,0,0.6,0
527,0.09677044151133395,0.00032857533614753445,0.9995749238752712,0,0.6,0
528,0.09671206567230503,0.0003177675795141254,0.9995508629625507,0,0.6,0
529,0.09675879217689702,0.0004392916535386733,0.9995882910490048,0,0.6,0
530,0.09682770946560873,0.0003382429163157457,0.99946989608165,0,0.6,0
531,0.09671200706882939,0.0002710215404302568,0.9993824365735072,0,0.6,0
532,0.09678690231072139,0.0003083910234087123,0.999485363811256,0,0.6,0
533,0.0967991053882038,0.0003763351754939873,0.9995271839690797,0,0.6,0
534,0.09679622026335115,0.0003551370624925809,0.9994947208328695,0,0.6,0
535,0.09681495384107007,0.0003832471963169335,0.9992889054263557,0,0.6,0
536,0.09678684370724572,0.0002990144673032937,0.9984940664859948,0,0.6,0
537,0.09678955740696552,0.00030005099136256545,0.9980863955935366,0,0.6,0
538,0.09676816873300244,0.00029903400179518054,0.9983913345931648,0,0.6,0
539,0.09678692184521327,0.0002897160491654225,0.9989333581395335,0,0.6,0
540,0.09675144521463228,0.00025235095148106395,0.9992312164838476,0,0.6,0
541,0.09676812966401867,0.0002896965146735411,0.9994573122809073,0,0.6,0
542,0.09674951329325104,0.00030843009239248055,0.9995882910490048,0,0.6,0
543,0.09677752575461597,0.0003083714889168254,0.9995134348760967,0,0.6,0
544,0.09678957734012052,0.000338163183695798,0.9996513077251774,0,0.6,0
545,0.09675881171138892,0.00032704646316010976,0.9996163621138454,0,0.6,0
546,0.09673077971553208,0.00035517613147634914,0.9996444331786861,0,0.6,0
547,0.0967800293588822,0.0003954311379705774,0.9996704036876541,0,0.6,0
548,0.09674949375875916,0.00033646208824929117,0.9996912182867536,0,0.6,0
549,0.096837277380002,0.0002809151625760041,0.9996704036876541,0,0.6,0
550,0.09677752575461597,0.00038320812733316523,0.9996350761570725,0,0.6,0
551,0.09681501244454574,0.0003177089760384649,0.9995976480706185,0,0.6,0
552,0.0966746571203428,0.00028037856204378306,0.9995415059409372,0,0.6,0
553,0.0966941772603575,0.00038592302304225076,0.9996895195832858,0,0.6,0
554,0.09670268911619963,0.0003177675795141254,0.9995508629625507,0,0.6,0
555,0.09677756482359974,0.0003271246011276517,0.999363742064772,0,0.6,0
556,0.09680561635394844,0.00030843009239248055,0.9986811483147897,0,0.6,0
557,0.096837277380002,0.00029054287643424964,0.998162659844513,0,0.6,0
558,0.09674953282774293,0.0002990730707789542,0.9984754305807353,0,0.6,0
559,0.09673232931900072,0.00035729901248235927,0.9991644005483346,0,0.6,0
560,0.09683372648777279,0.00038316905834939155,0.9993824561079991,0,0.6,0
561,0.09674951329325104,0.00028973558365730934,0.999625719135459,0,0.6,0
562,0.09680559681945655,0.00032710506663576484,0.9995602199841643,0,0.6,0
563,0.09677754528910787,0.000327085532143878,0.9996725042435266,0,0.6,0
564,0.09670366544213084,0.0003667871942556949,0.9995176359878415,0,0.6,0
565,0.0966840532109401,0.000336481622741178,0.9994760067896425,0,0.6,0
566,0.09674949375875916,0.0002990535362870674,0.9995508629625507,0,0.6,0
567,0.09671323335652411,0.0003190672212192133,0.9996035678189862,0,0.6,0
568,0.09674009766816186,0.0003177675795141254,0.9996537902002994,0,0.6,0
569,0.09667469618932657,0.0002335739194842539,0.9996631472219131,0,0.6,0
570,0.09674183743392904,0.00034771116493409037,0.9996131158002243,0,0.6,0
571,0.09676814919851054,0.0003925846834385784,0.9994572927464154,0,0.6,0
572,0.09675881171138892,0.00035517613147634914,0.9992514382709177,0,0.6,0
573,0.09672276140460742,0.0004049591860538842,0.9991453643853229,0,0.6,0
574,0.09681495384107007,0.0003645526875817623,0.9991298555934177,0,0.6,0
575,0.09674011720265374,0.00035517613147634914,0.9988025942508467,0,0.6,0
576,0.09675881171138892,0.0003457409718952809,0.9980920661774669,0,0.6,0
577,0.09678955740696552,0.00031916688699414655,0.9975326326148706,0,0.6,0
578,0.09675887031486456,0.00020558099261121696,0.9982697323811728,0,0.6,0
579,0.09668403367644823,0.0002523270316950856,0.9991018235975606,0,0.6,0
580,0.09675138541516731,0.0002522911520161072,0.9994508001191734,0,0.6,0
581,0.09671204613781316,0.00029903400179518054,0.9995602199841643,0,0.6,0
582,0.09675890938384833,0.0002896965146735411,0.9996444331786861,0,0.6,0
583,0.09671321342336914,0.00027142698080266853,0.999794527443752,0,0.6,0
584,0.09675885078037269,0.00025230749720319876,0.999625719135459,0,0.6,0
585,0.09672148129739423,0.00035511752800069407,0.9996912182867536,0,0.6,0
586,0.09666533916771305,0.00035517613147634914,0.9996631472219131,0,0.6,0
587,0.09672272153829746,0.0002714668471126451,0.9996513077251774,0,0.6,0
588,0.09669341023255365,0.0002991121397627225,0.9997005753083672,0,0.6,0
589,0.09668401414195633,0.0003925846834385784,0.9996444331786861,0,0.6,0
590,0.09673228945269073,0.00028101482835093743,0.9996704036876541,0,0.6,0
591,0.09670274771967528,0.00031780664849789364,0.9996350761570725,0,0.6,0
592,0.09666537823669683,0.00034581910986282286,0.999625719135459,0,0.6,0
593,0.09670368537528583,0.0003477908975540381,0.9995462799315563,0,0.6,0
594,0.0967121047412888,0.0003925846834385784,0.9995695965402697,0,0.6,0
595,0.09674953282774293,0.00038318859284127837,0.9994011506167342,0,0.6,0
596,0.09673083831900776,0.0003083910234087123,0.998578221077041,0,0.6,0
597,0.09673234925215568,0.0003095391731359011,0.9981627395771331,0,0.6,0
598,0.09669342976704554,0.00033646208824929117,0.9985689031244112,0,0.6,0
599,0.09667471572381847,0.00035511752800069407,0.9990457205368635,0,0.6,0
600,0.09678004929203719,0.00030945944051595877,0.9994221561754585,0,0.6,0
601,0.09663732670634813,0.0003271246011276517,0.999485363811256,0,0.6,0
602,0.09671206567230503,0.00027098247144648305,0.9994105076383477,0,0.6,0
603,0.09667506136472594,0.0002523708846360495,0.9988781405095806,0,0.6,0
604,0.09670274771967528,0.0003083910234087123,0.9982604534975268,0,0.6,0
605,0.09676816873300244,0.0003177871140060068,0.9980733912032237,0,0.6,0
606,0.09672142269391856,0.0002710410749221382,0.9979517694567398,0,0.6,0
607,0.09674189723339399,0.0003095989726008578,0.9980386357541902,0,0.6,0
608,0.09680557728496467,0.00022429503583826953,0.9985969351202679,0,0.6,0
609,0.09675885078037269,0.0002803980965356699,0.9985128586671894,0,0.6,0
610,0.09674183743392904,0.0002904631438143019,0.9981817956732997,0,0.6,0
611,0.09670276725416718,0.00021489894524096955,0.9980546771599967,0,0.6,0
612,0.09673079925002398,0.00024295047558967246,0.9980452810693995,0,0.6,0
613,0.09672278133776241,0.00022374687407615258,0.9980768675454533,0,0.6,0
614,0.09666535870220495,0.00023355438499237248,0.9986623561335951,0,0.6,0
615,0.09674013673714561,0.0003177675795141254,0.9989428519025902,0,0.6,0
616,0.09673072111205644,0.00024293094109778562,0.998596915585776,0,0.6,0
617,0.09672276140460742,0.00020459111213461115,0.9982580997905861,0,0.6,0
618,0.09668403367644823,0.0003177871140060068,0.9987838411386358,0,0.6,0
619,0.09668403367644823,0.00023359345397614074,0.999307580400599,0,0.6,0
620,0.09662734139168945,0.00014740289047977402,0.9995653958271878,0,0.6,0
621,0.09670274771967528,0.00020558099261121696,0.9996350761570725,0,0.6,0
622,0.09667471572381847,0.00022433410482204321,0.9997473604164349,0,0.6,0
623,0.0966560052685593,0.00032871486823243893,0.9997467875375604,0,0.6,0
624,0.09668403367644823,0.00019634117794900628,0.9995602199841643,0,0.6,0
625,0.09665598214609952,0.0002803980965356699,0.9993824561079991,0,0.6,0
626,0.09676099319587057,0.0002332549890044792,0.9996035678189862,0,0.6,0
627,0.09665604074957519,0.00029903400179518054,0.9996444331786861,0,0.6,0
628,0.09672144222841046,0.0002616840533086119,0.9997567174380484,0,0.6,0
629,0.09661781334360614,0.00026185906640939055,0.9996894996501308,0,0.6,0
630,0.0966746571203428,0.00025230749720319876,0.9997286463732077,0,0.6,0
631,0.09668405321094013,0.0003551370624925809,0.9997380033948212,0,0.6,0
632,0.09669342976704554,0.0002522879627113119,0.9997286463732077,0,0.6,0
633,0.0966274011911544,0.00027140704764768293,0.9997085956126073,0,0.6,0
634,0.09669342976704554,0.000336481622741178,0.9996444331786861,0,0.6,0
635,0.0967121242757807,0.0002335739194842539,0.9994666497680289,0,0.6,0
636,0.09664668372796167,0.0002896574456897674,0.9986811287802978,0,0.6,0
637,0.0966846093459642,0.00029997125874262314,0.9982199277987879,0,0.6,0
638,0.09679627886682679,0.0002522879627113119,0.9977927196238017,0,0.6,0
639,0.09674015627163751,0.00023363252295991442,0.9980546771599967,0,0.6,0
640,0.09672278133776241,0.0002428029702427716,0.998668284253888,0,0.6,0
641,0.0966560212150833,0.00030833241993305174,0.9990924470414553,0,0.6,0
642,0.09670278678865905,0.0002710020059383699,0.9991204985718041,0,0.6,0
643,0.09677052124395388,0.00024274317077781484,0.9990975646796666,0,0.6,0
644,0.09669335162907798,0.0003271832046033068,0.9990269869591444,0,0.6,0
645,0.09663730717185624,0.00024308721703287492,0.9992234062750611,0,0.6,0
646,0.0966279696847346,0.0003177675795141254,0.9994385787031882,0,0.6,0
647,0.09673234925215568,0.0002523110851710928,0.9994889920441266,0,0.6,0
648,0.09671206567230503,0.0003178652519735596,0.9995789340273913,0,0.6,0
649,0.09660917750353999,0.00023363252295991442,0.9996163621138454,0,0.6,0
650,0.09668466914542918,0.00020471071106453002,0.9996608557064158,0,0.6,0
651,0.09662791108125894,0.00029915120874649616,0.9996725042435266,0,0.6,0
652,0.09661863219761296,0.00038320812733316523,0.9996163621138454,0,0.6,0
653,0.09666555324979761,0.0002809151625760041,0.999699047631369,0,0.6,0
654,0.09670272818518341,0.0002896965146735411,0.9994572927464154,0,0.6,0
655,0.09671204613781316,0.0003832471963169335,0.9990082924504093,0,0.6,0
656,0.09664664465897788,0.00023369112643556952,0.9984941250894704,0,0.6,0
657,0.09673230938584572,0.0002714469139576541,0.9981436436146565,0,0.6,0
658,0.09676820780198621,0.00027106060941402505,0.9985314945724489,0,0.6,0
659,0.09671323335652411,0.00020461104528959672,0.9988875888250439,0,0.6,0
660,0.09663730717185624,0.0003551565969844623,0.9991204790373122,0,0.6,0
661,0.09657184708954532,0.0002710410749221382,0.9993824561079991,0,0.6,0
662,0.09662793061575083,0.00023361298846802758,0.9996163621138454,0,0.6,0
663,0.09658936873144111,0.00032867500192246236,0.9996608557064158,0,0.6,0
664,0.09662791108125894,0.00024295047558967246,0.9996163621138454,0,0.6,0
665,0.09669342976704554,0.0002616840533086119,0.9996537902002994,0,0.6,0
666,0.09663696910554767,0.00025233101832607835,0.9996799516688926,0,0.6,0
667,0.09670272818518341,0.0003083910234087123,0.9996350761570725,0,0.6,0
668,0.09670274771967528,0.0002710020059383699,0.9996725042435266,0,0.6,0
669,0.09675883124588079,0.0002897160491654225,0.9996725042435266,0,0.6,0
670,0.09669415732720252,0.00037637504180395843,0.9995940198377478,0,0.6,0
671,0.09665600168059141,0.00033646208824929117,0.9997286463732077,0,0.6,0
672,0.09671208520679693,0.0004954533177117288,0.9997005753083672,0,0.6,0
673,0.09673232931900072,0.0004050389186738319,0.9997276915750839,0,0.6,0
674,0.09663732670634813,0.0003177675795141254,0.9996444722476698,0,0.6,0
675,0.09670274771967528,0.0003739487781790623,0.999391910802072,0,0.6,0
676,0.09673079925002398,0.00035517613147634914,0.9986156296290032,0,0.6,0
677,0.09673238911846567,0.0003000111250525943,0.9981436037483464,0,0.6,0
678,0.09669341023255365,0.00022431457033015637,0.9984380415632651,0,0.6,0
679,0.09664666419346978,0.0002710020059383699,0.9990737134637364,0,0.6,0
680,0.096741857367084,0.00029050301012426764,0.9994126081942203,0,0.6,0
681,0.09677758435809161,0.0002803980965356699,0.9995321489193236,0,0.6,0
682,0.09672140315942668,0.00019624350548957207,0.9996163621138454,0,0.6,0
683,0.09666549345033267,0.0003095391731359011,0.9996513077251774,0,0.6,0
684,0.09669341023255365,0.0002710215404302568,0.9995789340273913,0,0.6,0
685,0.09661855405964542,0.00029909260527083566,0.9996163621138454,0,0.6,0
686,0.09664658605550222,0.00023367159194368268,0.9995882910490048,0,0.6,0
687,0.09657970115127291,0.00026187899956437615,0.9995940198377478,0,0.6,0
688,0.09669339069806175,0.0002897160491654225,0.9995976480706185,0,0.6,0
689,0.09664664465897788,0.00026172312229238016,0.9994198646599612,0,0.6,0
690,0.09657976095073786,0.0003000111250525943,0.99946989608165,0,0.6,0
691,0.09660921657252378,0.0003084105579005937,0.9995134348760967,0,0.6,0
692,0.09667469618932657,0.00040194170505210465,0.9994760067896425,0,0.6,0
693,0.09670370530844082,0.00038588315673228503,0.9994317041566967,0,0.6,0
694,0.09670274771967528,0.0003364230192655229,0.9994198646599612,0,0.6,0
695,0.09662800875371837,0.00024293094109778562,0.9992140297189556,0,0.6,0
696,0.09671206567230503,0.0003177871140060068,0.9985127805292218,0,0.6,0
697,0.09667508129788092,0.0002809948951959519,0.9980004438292369,0,0.6,0
698,0.09670272818518341,0.0002990730707789542,0.9981201177078157,0,0.6,0
699,0.09671321342336914,0.0003381432505408124,0.9987159244943045,0,0.6,0
700,0.09670270865069151,0.00021493801422474323,0.9991204790373122,0,0.6,0
701,0.09666533916771305,0.00018686694938415893,0.9993543655086665,0,0.6,0
702,0.09666530009872928,0.0003271246011276517,0.9993543655086665,0,0.6,0
703,0.09667506136472594,0.000319107087529179,0.9994126081942203,0,0.6,0
704,0.09665596261160765,0.00034583864435470973,0.9994105076383477,0,0.6,0
705,0.09667469618932657,0.0002616840533086119,0.9992982233789854,0,0.6,0
706,0.09673079925002398,0.00032710506663576484,0.999204692231834,0,0.6,0
707,0.09668456947965426,0.0002809550288859753,0.999183496510811,0,0.6,0
708,0.09668397507297256,0.0002616840533086119,0.9991578875892743,0,0.6,0
709,0.0966655731829526,0.0003190672212192133,0.9991071525272147,0,0.6,0
710,0.09662793061575083,0.00027096293695459624,0.9990550189550013,0,0.6,0
711,0.09669344930153742,0.00021493801422474323,0.9994105076383477,0,0.6,0
712,0.09673083831900776,0.00025230749720319876,0.9995602199841643,0,0.6,0
713,0.09676089353009563,0.0001950431308963188,0.9993171682481473,0,0.6,0
714,0.09668403367644823,0.0002896574456897674,0.999120518106296,0,0.6,0
715,0.09669339069806175,0.0002897160491654225,0.9992327437621825,0,0.6,0
716,0.09667475479280226,0.0002803980965356699,0.998737114634044,0,0.6,0
717,0.09673230938584572,0.00023321512269450806,0.9982677474375992,0,0.6,0
718,0.0966746766548347,0.0001962044365057984,0.9983539065067107,0,0.6,0
719,0.09666531963322117,0.00031780664849789364,0.9989895588726903,0,0.6,0
720,0.0966560052685593,0.0002809151625760041,0.9993553203067904,0,0.6,0
721,0.09675887031486456,0.00030844962688436736,0.9995976480706185,0,0.6,0
722,0.09664664465897788,0.00020563959608687206,0.9995134348760967,0,0.6,0
723,0.09669415732720252,0.00017604683419466196,0.9989925966855102,0,0.6,0
724,0.09662800875371837,0.00020560052710309838,0.9984193861235136,0,0.6,0
725,0.09663724856838057,0.0002990730707789542,0.998064073250594,0,0.6,0
726,0.09666535870220495,0.0002616449843248382,0.99823242150167,0,0.6,0
727,0.09664643735416603,0.00026179926694443385,0.9981245277190249,0,0.6,0
728,0.09668403367644823,0.00023361298846802758,0.9986904271984357,0,0.6,0
729,0.0966185735941373,0.0001588349535273429,0.9985782796805165,0,0.6,0
730,0.09671321342336914,9.96430511333158e-05,0.9983344836404924,0,0.6,0
731,0.09666533916771305,0.00023373019541934862,0.9981574676563023,0,0.6,0
732,0.0966746766548347,0.00017762713472194828,0.9981014036645888,0,0.6,0
733,0.09667514109734587,0.0002906226090541865,0.9982102801517747,0,0.6,0
734,0.09652994560444925,0.00014027718623537961,0.9986623952025788,0,0.6,0
735,0.0966467814004211,0.00013088109563807963,0.9991580633997015,0,0.6,0
736,0.09659997675786157,0.00018698415633547997,0.9987184591942925,0,0.6,0
737,0.0966178532099161,0.00023321512269450806,0.9982868434000759,0,0.6,0
738,0.09660931424498322,0.00014019904826783223,0.9984380610977568,0,0.6,0
739,0.09661861266312106,0.00020556145811933012,0.9991485501021529,0,0.6,0
740,0.096646477220476,0.00022370700776618143,0.9994412521379351,0,0.6,0
741,0.09661861266312106,0.00017750992777063263,0.9995882910490048,0,0.6,0
742,0.0965999181543859,0.0001494779319138166,0.9997660744596619,0,0.6,0
743,0.09659877718059451,0.0001951029303612701,0.999565375894033,0,0.6,0
744,0.09658122364565074,0.0001868474148922721,0.9995415059409372,0,0.6,0
745,0.09665596261160765,0.00020562006159498522,0.9996163621138454,0,0.6,0
746,0.09657968121811791,0.00019512286351625567,0.9998136234062285,0,0.6,0
747,0.0965811455076832,0.00020569819956253258,0.999784788502889,0,0.6,0
748,0.09652517918842901,0.00020556145811933012,0.9997941455245025,0,0.6,0
749,0.09659060020175614,0.0002617035878004987,0.999822216589343,0,0.6,0
750,0.09654156902578469,0.00019512286351625567,0.9998804592748965,0,0.6,0
751,0.09657190569302099,0.0002617035878004987,0.9998035025461159,0,0.6,0
752,0.09659056113277237,0.00020554192362744328,0.9998409306325702,0,0.6,0
753,0.09654158895893966,0.00016641912033642185,0.999765883500037,0,0.6,0
754,0.09651584170130735,0.00025224889372754363,0.9998409306325702,0,0.6,0
755,0.09656250960242367,0.00023365205745180126,0.9995508629625507,0,0.6,0
756,0.0966185931286292,0.00025236610067885383,0.999036324446266,0,0.6,0
757,0.09670366544213084,0.00030003105820757984,0.9984203158058622,0,0.6,0
758,0.09664670326245355,0.00023365205745180126,0.9984941836929462,0,0.6,0
759,0.09660828529552283,0.00022364720830123013,0.9989545243594868,0,0.6,0
760,0.0965999181543859,0.00026166451881672504,0.9994947208328695,0,0.6,0
761,0.09656247053343991,0.0001681529061571009,0.9995789340273913,0,0.6,0
762,0.09652512058495333,0.0001775489967544009,0.9997005753083672,0,0.6,0
763,0.09657013323687962,0.00023327492215946479,0.9996513077251774,0,0.6,0
764,0.09665600168059141,0.00016823104412464287,0.9996350761570725,0,0.6,0
765,0.0964971276580803,0.00024300907906532756,0.999625719135459,0,0.6,0
766,0.09657021296949955,0.00015699073802804295,0.999699047631369,0,0.6,0
767,0.09658128224912639,0.00015891309149489567,0.9997754314812753,0,0.6,0
768,0.09659061973624804,0.00026166451881672504,0.9996912182867536,0,0.6,0
769,0.09660923610701565,0.00024295047558967246,0.9996818612651402,0,0.6,0
770,0.09657968121811791,0.00024286276970773374,0.9996226637814627,0,0.6,0
771,0.09659993768887778,0.00020563959608687206,0.9994479357248018,0,0.6,0
772,0.0966279892192265,0.00024298954457344072,0.999204672697342,0,0.6,0
773,0.09657966128496293,0.00021417895968287465,0.9990593528215583,0,0.6,0
774,0.0966373657753319,0.0003177089760384649,0.9991485501021529,0,0.6,0
775,0.09655321118428581,0.00018686694938415893,0.9989614878078498,0,0.6,0
776,0.09667479386178603,0.0001775489967544009,0.9981854996521591,0,0.6,0
777,0.09653196124508144,0.0001855150828130066,0.9977044962771598,0,0.6,0
778,0.0966185931286292,0.00017747085878685895,0.9978675757967099,0,0.6,0
779,0.09671208520679693,0.0001775489967544009,0.9987932567637251,0,0.6,0
780,0.09660828529552283,0.00021415902652788908,0.9993266962962306,0,0.6,0
781,0.09661861266312106,0.00028037856204378306,0.9996537902002994,0,0.6,0
782,0.0965999181543859,0.00024298954457344072,0.9997567174380484,0,0.6,0
783,0.09659871738112956,0.00015697080487305737,0.9996513077251774,0,0.6,0
784,0.09659993768887778,0.00019630210896523802,0.9997380229293132,0,0.6,0
785,0.09659995722336967,0.00022429503583826953,0.9997660939941537,0,0.6,0
786,0.09659654466723608,0.0003479304296389371,0.9997468274038706,0,0.6,0
787,0.09662812596066969,0.0001870036908273668,0.9996912182867536,0,0.6,0
788,0.09657188615852909,0.0003178261829897805,0.9996819003341239,0,0.6,0
789,0.09655323071877768,0.000289774652641083,0.9998035025461159,0,0.6,0
790,0.09657011330372464,0.0002142188259928458,0.9997563355187988,0,0.6,0
791,0.09663726810287247,0.0002803590275518962,0.9996444331786861,0,0.6,0
792,0.09655317211530204,0.00016821150963276145,0.9995882910490048,0,0.6,0
793,0.09664645728732102,0.00029997125874262314,0.9996417597439392,0,0.6,0
794,0.09664664465897788,0.0001962044365057984,0.9996444331786861,0,0.6,0
795,0.09659987908540212,0.00024297001008155388,0.9995882910490048,0,0.6,0
796,0.09660921657252378,0.0002523856351707407,0.9988773527512955,0,0.6,0
797,0.09659877718059451,0.0001951427966712521,0.9982485717425028,0,0.6,0
798,0.09658118457666696,0.00024300907906532756,0.9984380610977568,0,0.6,0
799,0.09661791300938107,0.00019518266298121782,0.9990117325142966,0,0.6,0
800,0.09656258774039121,0.0001682505786165297,0.9994387154446315,0,0.6,0
801,0.09664670326245355,0.00021495754871663007,0.9996070246267238,0,0.6,0
802,0.09658120411115884,0.00025236610067885383,0.9996350956915643,0,0.6,0
803,0.0965415490926297,0.00015701067118302855,0.9996226637814627,0,0.6,0
804,0.09661861266312106,0.00021489894524096955,0.9996350761570725,0,0.6,0
805,0.09659050252929671,0.00027094340246270937,0.9996631472219131,0,0.6,0
806,0.09660925564150755,0.00018688648387604577,0.9996631472219131,0,0.6,0
807,0.09657019303634456,0.00024282290339775717,0.9996608557064158,0,0.6,0
808,0.09660925564150755,0.00021493801422474323,0.9996631472219131,0,0.6,0
809,0.0965905220637886,0.0001494779319138166,0.9996818612651402,0,0.6,0
810,0.09659873731428455,0.0002142387591478368,0.9996799516688926,0,0.6,0
811,0.09659993768887778,0.00021489894524096955,0.9995602199841643,0,0.6,0
812,0.0966746766548347,0.00023363252295991442,0.9997286463732077,0,0.6,0
813,0.09661787314307109,0.0002809350957309897,0.9996513077251774,0,0.6,0
814,0.09664672279694542,0.00023365205745180126,0.9997099323299807,0,0.6,0
815,0.09660929471049132,0.00023363252295991442,0.9994760067896425,0,0.6,0
816,0.0965999181543859,0.0002710215404302568,0.9988025942508467,0,0.6,0
817,0.09657976095073786,0.00022366714145621028,0.9982772356193725,0,0.6,0
818,0.09658124318014262,0.00022429503583826953,0.9982884854933834,0,0.6,0
819,0.09661789307622608,0.0001092906981465469,0.999049824773475,0,0.6,0
820,0.09655328932225336,0.00022429503583826953,0.9993730990863855,0,0.6,0
821,0.09658122364565074,0.0001868474148922721,0.9995882910490048,0,0.6,0
822,0.09657188615852909,0.00024297001008155388,0.9994947208328695,0,0.6,0
823,0.0965320011113914,0.00022364720830123013,0.9993266763630755,0,0.6,0
824,0.09666537823669683,0.0002616840533086119,0.9994760263241345,0,0.6,0
825,0.09652517918842901,0.00024297001008155388,0.9994947208328695,0,0.6,0
826,0.0966083251618328,0.00017604683419466196,0.9994889920441266,0,0.6,0
827,0.096487731567483,0.00016821150963276145,0.9994853833457479,0,0.6,0
828,0.09661865173210485,0.00019630210896522717,0.9995134348760967,0,0.6,0
829,0.09662793061575083,0.00018686694938415893,0.9995602199841643,0,0.6,0
830,0.09667506136472594,0.00022370700776618143,0.9992885243044324,0,0.6,0
831,0.09658124318014262,0.00017750992777063263,0.9991485305676607,0,0.6,0
832,0.09651584170130735,0.00022433410482204321,0.9991766016325014,0,0.6,0
833,0.0965987971137495,0.0002618989327193563,0.9994221561754585,0,0.6,0
834,0.09660925564150755,0.0001962630399814589,0.99952279189771,0,0.6,0
835,0.09663726810287247,0.00023363252295991442,0.9994198646599612,0,0.6,0
836,0.09659056113277237,0.00018694508735170087,0.9988026528543223,0,0.6,0
837,0.09663688937292773,0.00021417895968287465,0.9982486116088127,0,0.6,0
838,0.0966746766548347,0.00014014044479217713,0.9982978425149971,0,0.6,0
839,0.09663732670634813,0.00024293094109778562,0.998755828677271,0,0.6,0
840,0.09657011330372464,0.00018555494912297774,0.9989734807898786,0,0.6,0
841,0.09657186662403719,0.0001962044365057984,0.9989988768253202,0,0.6,0
842,0.09645977770959373,0.00024297001008155388,0.9991579266582582,0,0.6,0
843,0.09659873731428455,0.0002331752563845369,0.9991548127007863,0,0.6,0
844,0.09666535870220495,0.00021493801422474323,0.9989521698552201,0,0.6,0
845,0.09655323071877768,0.00017752946226251405,0.9985782992150084,0,0.6,0
846,0.09648436087097485,0.00020467084475455345,0.9982009115689312,0,0.6,0
847,0.09659989861989401,0.00014955606988136395,0.9980827482248373,0,0.6,0
848,0.09658116504217507,0.0001495365353894717,0.9981107802206941,0,0.6,0
849,0.09657974101758288,0.0001188785456948104,0.9981340757002631,0,0.6,0
850,0.09655321118428581,0.0001682505786165297,0.9985408906630462,0,0.6,0
851,0.09659060020175614,0.00016827011310842197,0.9985875976331463,0,0.6,0
852,0.09654383462818039,0.0001308224921624191,0.9982136488549672,0,0.6,0
853,0.0965701531700346,0.00010923089868158474,0.9980291276392618,0,0.6,0
854,0.0965999181543859,9.345300918396902e-05,0.9980359631167696,0,0.6,0
855,0.0965345752790263,9.34920781677427e-05,0.9981481887726563,0,0.6,0
856,0.09660834509498778,0.00010923089868158474,0.9987446083043293,0,0.6,0
857,0.09648777063646677,0.00012148500504077423,0.999345028021545,0,0.6,0
858,0.0965438150936885,0.00010277096181372164,0.9995882910490048,0,0.6,0
859,0.09654377602470474,0.00017750992777063263,0.999625719135459,0,0.6,0
860,0.09657970115127291,0.00014732315785983172,0.9997276915750839,0,0.6,0
861,0.09651586123579924,8.409598757043189e-05,0.9997005753083672,0,0.6,0
862,0.09657192522751286,0.00012148500504077423,0.9996725042435266,0,0.6,0
863,0.09657968121811791,0.00014748262309972174,0.9997372395563222,0,0.6,0
864,0.09655319164979391,0.00010277096181372164,0.9996350761570725,0,0.6,0
865,0.09647839408036135,0.00016823104412464287,0.9996350761570725,0,0.6,0
866,0.09657966128496293,0.00021419889283786023,0.9996894996501308,0,0.6,0
867,0.09651584170130735,0.0001027123583380611,0.9997380033948212,0,0.6,0
868,0.09654379555919661,0.00016817244064898777,0.9998409306325702,0,0.6,0
869,0.09651578309783168,9.341394020018991e-05,0.9997099323299807,0,0.6,0
870,0.09653204097770138,0.00017604683419465654,0.9996704036876541,0,0.6,0
871,0.09656258774039121,0.00015887402251111657,0.999784788502889,0,0.6,0
872,0.09656256820589934,0.0001588349535273429,0.9996725042435266,0,0.6,0
873,0.0965987572474395,0.00017600696788468538,0.9996894996501308,0,0.6,0
874,0.09659060020175614,0.00017752946226251405,0.9996818612651402,0,0.6,0
875,0.0964971081235884,0.00021497708320851152,0.9995321489193236,0,0.6,0
876,0.09655109707386798,0.00015695087171806638,0.998859144212879,0,0.6,0
877,0.09655323071877768,0.00015879588454357463,0.9982042918333538,0,0.6,0
878,0.09657186662403719,0.00014951700089759027,0.998297862049489,0,0.6,0
879,0.09651584170130735,0.0001495756043732508,0.9987651466299007,0,0.6,0
880,0.09652251292961807,9.976265006323468e-05,0.9993171483149922,0,0.6,0
881,0.09657190569302099,0.00017756853124628773,0.9995134348760967,0,0.6,0
882,0.09652517918842901,0.00017752946226251405,0.9995882910490048,0,0.6,0
883,0.0965415490926297,0.00016647891980137316,0.9996894996501308,0,0.6,0
884,0.09647847221832889,0.00011218658690290845,0.9996631472219131,0,0.6,0
885,0.09655319164979394,0.00016817244064898777,0.9996350761570725,0,0.6,0
886,0.0965606251219513,0.00017598703472969978,0.9996608557064158,0,0.6,0
887,0.09648780970545055,0.00018692555285981403,0.9996725042435266,0,0.6,0
888,0.09653453621004253,0.0001962630399814589,0.9996163621138454,0,0.6,0
889,0.09652249299646308,0.00019502319774133322,0.9995558279127946,0,0.6,0
890,0.09649714719257217,0.0002149184797328564,0.9995882910490048,0,0.6,0
891,0.09652514011944521,0.00013076388868676398,0.9996163621138454,0,0.6,0
892,0.09653451667555063,0.00022433410482204321,0.9997286463732077,0,0.6,0
893,0.0965892291993562,0.00019506306405129895,0.9997085956126073,0,0.6,0
894,0.09659056113277237,0.00015881541903546147,0.99952279189771,0,0.6,0
895,0.09648780970545055,0.0002522684282194251,0.9993543655086665,0,0.6,0
896,0.09656072478772623,0.00013785490924148166,0.9987541164192576,0,0.6,0
897,0.09661861266312106,0.00017750992777063263,0.9981855973246186,0,0.6,0
898,0.0964971081235884,0.00017758806573817457,0.9983352901359431,0,0.6,0
899,0.09658920926620124,0.00022366714145621028,0.9989067645201405,0,0.6,0
900,0.09659058066726427,0.0001495365353894717,0.9991579266582582,0,0.6,0
901,0.09657184708954532,0.00023365205745180126,0.9993169374222125,0,0.6,0
902,0.09659060020175614,0.00011210844893536109,0.9994479357248018,0,0.6,0
903,0.0965606051887963,0.00016653871926634075,0.9995080880066032,0,0.6,0
904,0.09664664465897788,0.00019618490201391697,0.9995602199841643,0,0.6,0
905,0.09659993768887778,0.00021495754871663007,0.9993917935951208,0,0.6,0
906,0.0965892491325112,0.00017594716841972863,0.999278936456884,0,0.6,0
907,0.09655323071877768,0.00012154360851644017,0.9992140101844637,0,0.6,0
908,0.09656254867140746,0.00014949746640570343,0.9991204399683284,0,0.6,0
909,0.09654152915947471,0.0001951029303612701,0.9990689606022616,0,0.6,0
910,0.09662791108125894,0.00023361298846802758,0.999064356442123,0,0.6,0
911,0.09659056113277237,0.00012146547054888739,0.9990923884379797,0,0.6,0
912,0.09657192522751286,0.00020556145811933012,0.9991392126150312,0,0.6,0
913,0.0965415490926297,9.970285059827254e-05,0.9993553402399455,0,0.6,0
914,0.0964690761277316,0.0001495365353894717,0.9995134348760967,0,0.6,0
915,0.096487731567483,0.0002149184797328564,0.9995602199841643,0,0.6,0
916,0.0965606251219513,0.00021417895968287465,0.9988209323547708,0,0.6,0
917,0.09665600168059141,0.0001962630399814589,0.9983539846446783,0,0.6,0
918,0.0965905415982805,0.00017752946226251405,0.9983165174892404,0,0.6,0
919,0.09656064505510628,0.00015697080487305737,0.9988399087183175,0,0.6,0
920,0.09651584170130735,0.00018688648387604577,0.9993356709999315,0,0.6,0
921,0.09653453621004253,0.00016823104412464287,0.9994479552592938,0,0.6,0
922,0.09654393230063983,0.00020558099261121696,0.9995695770057778,0,0.6,0
923,0.0965606051887963,0.00012832686115816946,0.999699047631369,0,0.6,0
924,0.09648779017095865,0.00012146547054888739,0.9995789340273913,0,0.6,0
925,0.09658126271463452,0.00013080295767053227,0.9993917935951208,0,0.6,0
926,0.09657968121811791,0.0001951029303612701,0.9994317041566967,0,0.6,0
927,0.09654385416267228,0.00010277096181372164,0.99952279189771,0,0.6,0
928,0.09658124318014262,0.00019622397099768523,0.9996350761570725,0,0.6,0
929,0.09655107714071301,0.00020461104528959672,0.9996513077251774,0,0.6,0
930,0.09647845268383702,0.0001494779319138166,0.999625719135459,0,0.6,0
931,0.09651580263232358,0.00018688648387604577,0.9995789340273913,0,0.6,0
932,0.09654383462818039,0.00022437317380582232,0.9995789340273913,0,0.6,0
933,0.09653204097770138,0.00013787484239646182,0.9995367319503179,0,0.6,0
934,0.09648780970545055,0.0001869060183679272,0.9996163621138454,0,0.6,0
935,0.09638501920914494,0.00020562006159498522,0.9994385787031882,0,0.6,0
936,0.09661863219761296,0.00017752946226251405,0.9989335339499605,0,0.6,0
937,0.09652245313015312,0.00010925083183657031,0.9981722277589062,0,0.6,0
938,0.09655311351182637,0.0001308224921624191,0.9981669028158834,0,0.6,0
939,0.09651296494837977,0.00018557488227796332,0.9986110960322332,0,0.6,0
940,0.09651584170130735,0.00012150453953266649,0.9990736548602608,0,0.6,0
941,0.09656250960242367,0.00013088109563807963,0.9992607952925313,0,0.6,0
942,0.09655313304631827,0.00017758806573817457,0.9994666497680289,0,0.6,0
943,0.09649384905274819,0.00024286276970773374,0.9994985400253648,0,0.6,0
944,0.09660925564150755,0.00017756853124628773,0.9995602199841643,0,0.6,0
945,0.09652510105046146,0.00017756853124628773,0.9993824365735072,0,0.6,0
946,0.09650345683345145,0.00018555494912297774,0.9995558279127946,0,0.6,0
947,0.09652512058495333,0.0001495365353894717,0.9995976480706185,0,0.6,0
948,0.09649718626155596,0.00012150453953266649,0.9996163621138454,0,0.6,0
949,0.09653204097770138,0.00015699073802804295,0.9996704036876541,0,0.6,0
950,0.09658118457666696,0.00014949746640570343,0.9995508629625507,0,0.6,0
951,0.09659058066726427,0.00027098247144648305,0.9995976480706185,0,0.6,0
952,0.09653453621004253,0.00010277096181372164,0.9996444331786861,0,0.6,0
953,0.09651296494837977,0.0002713671813377118,0.9996704036876541,0,0.6,0
954,0.09661869080108862,0.00014949746640570343,0.9995789340273913,0,0.6,0
955,0.09658128224912639,0.00028031995856812793,0.99952279189771,0,0.6,0
956,0.0965701531700346,0.0001569309385630808,0.9988399685177823,0,0.6,0
957,0.09655325025326958,0.00021489894524096955,0.9983258159073782,0,0.6,0
958,0.09647845268383702,0.0002335739194842539,0.9983165174892404,0,0.6,0
959,0.0965319811782364,0.00012834679431316046,0.9989353486643904,0,0.6,0
960,0.0965905415982805,0.0001681529061571009,0.9993263139783178,0,0.6,0
961,0.09659999629235344,0.00018686694938415893,0.999485363811256,0,0.6,0
962,0.09657190569302099,0.00024297001008155388,0.9995695770057778,0,0.6,0
963,0.09645571692725997,0.00014740289047977402,0.9994126081942203,0,0.6,0
964,0.09650648467969383,0.00014012091030029029,0.9995415059409372,0,0.6,0
965,0.09654387369716416,0.00010279049630560306,0.99952279189771,0,0.6,0
966,0.09646528484165326,0.00024272323762282926,0.9994508200523283,0,0.6,0
967,0.09648775110197488,0.00025236610067885383,0.9987932372292332,0,0.6,0
968,0.09658126271463452,0.0001494779319138166,0.9983539065067107,0,0.6,0
969,0.09660929471049132,0.0001682505786165297,0.9978394851973774,0,0.6,0
970,0.0965987971137495,0.0001282869948481983,0.9978763599394491,0,0.6,0
971,0.0965065237486776,0.00017747085878685895,0.9978582187750964,0,0.6,0
972,0.09659060020175614,0.00014949746640570343,0.9983165174892404,0,0.6,0
973,0.09649390885221316,9.968291744328696e-05,0.9980195397917137,0,0.6,0
974,0.09654383462818039,0.0001869060183679272,0.9974558668457146,0,0.6,0
975,0.09656258774039121,8.411552206232957e-05,0.9972967974782846,0,0.6,0
976,0.09649384905274819,0.0001092906981465469,0.9972461931777218,0,0.6,0
977,0.09655319164979391,5.6083526205513514e-05,0.9972874404566712,0,0.6,0
978,0.09644112226984232,0.00012152407402455333,0.9978956273270587,0,0.6,0
979,0.0965606251219513,8.066668758664997e-05,0.9985919801366016,0,0.6,0
980,0.09654377602470474,2.8031995856816047e-05,0.9991111024812066,0,0.6,0
981,0.09652512058495333,8.405691858666361e-05,0.9993917935951208,0,0.6,0
982,0.09645975817510184,0.00011212798342724793,0.9994292216815749,0,0.6,0
983,0.09652245313015312,0.00010927076499156131,0.9995558279127946,0,0.6,0
984,0.09653447760656686,9.345300918396902e-05,0.9993450084870531,0,0.6,0
985,0.09652519872292088,0.00012154360851644017,0.99936372253028,0,0.6,0
986,0.09657970115127291,0.00010925083183657031,0.9993839642505052,0,0.6,0
987,0.09646911519671537,8.409598757044273e-05,0.9993918131296127,0,0.6,0
988,0.09647841361485325,0.0001307834231786454,0.9995508629625507,0,0.6,0
989,0.09643668076424834,0.00013789477555145824,0.9995749238752712,0,0.6,0
990,0.09648780970545055,0.00020560052710309838,0.9995976480706185,0,0.6,0
991,0.09645038161899643,5.6083526205513514e-05,0.9995695770057778,0,0.6,0
992,0.09653451667555063,0.00014019904826783765,0.9995134348760967,0,0.6,0
993,0.09642715271616505,9.021466882494233e-05,0.9994889920441266,0,0.6,0
994,0.09644110273535045,0.00021493801422474323,0.9995415059409372,0,0.6,0
995,0.09652515965393711,0.00015879588454357463,0.9995602199841643,0,0.6,0
996,0.0965701731031896,0.00022370700776618143,0.9989736003888086,0,0.6,0
997,0.0964504206879802,0.0001589326259867825,0.9983538869722187,0,0.6,0
998,0.09655321118428581,7.479756943257153e-05,0.9983725814809541,0,0.6,0
999,0.09654152915947471,7.11187063483576e-05,0.998859084413414,0,0.6,0
1000,0.09652515965393711,0.00014019904826783765,0.9992608538960069,0,0.6,0
1001,0.09644104413187479,0.0001308615611461982,0.9995415059409372,0,0.6,0
1002,0.09659058066726427,0.00015887402251111657,0.99952279189771,0,0.6,0
1003,0.09648436087097485,8.066668758664997e-05,0.9994889920441266,0,0.6,0
1004,0.09638503874363681,0.00017752946226251405,0.99952279189771,0,0.6,0
1005,0.09646911519671537,0.0001588349535273429,0.9995415059409372,0,0.6,0
1006,0.09648440073728484,0.00012834679431316046,0.9995558279127946,0,0.6,0
1007,0.09646909566222348,0.00010281003079749532,0.9994947208328695,0,0.6,0
1008,0.09651580263232358,0.00012154360851644017,0.9995695770057778,0,0.6,0
1009,0.09652253286277306,9.02346019799279e-05,0.9994889920441266,0,0.6,0
1010,0.09656249006793179,0.00017756853124628773,0.9995508629625507,0,0.6,0
1011,0.09644106366636666,0.00011222565588668214,0.9995415254754291,0,0.6,0
1012,0.09646913473120725,2.8031995856816047e-05,0.9995321489193236,0,0.6,0
1013,0.09643670069740333,0.00029066247536415767,0.9993553402399455,0,0.6,0
1014,0.09644106366636666,9.343347469207675e-05,0.9994854224147316,0,0.6,0
1015,0.09654387369716416,0.00014021858275971907,0.9995134544105886,0,0.6,0
1016,0.09644505268934248,0.00012848632639805952,0.9986778521682813,0,0.6,0
1017,0.09643170664475315,0.00012158267750020843,0.9981854801176672,0,0.6,0
1018,0.09651584170130735,0.00011218658690290845,0.9982323433637024,0,0.6,0
1019,0.09650343690029645,8.066668758664997e-05,0.9988495164990208,0,0.6,0
1020,0.0964971081235884,0.00014951700089759027,0.9991953156757284,0,0.6,0
1021,0.0964223691576315,0.0001962044365057984,0.9994105271728396,0,0.6,0
1022,0.09654383462818039,0.0001774903932787458,0.9994011506167342,0,0.6,0
1023,0.09639854863876014,0.00018557488227796332,0.99946989608165,0,0.6,0
1024,0.09646909566222348,0.0001588349535273429,0.9995321489193236,0,0.6,0
1025,0.09648779017095865,0.00021493801422474323,0.9995321489193236,0,0.6,0
1026,0.09645575679356995,0.00018555494912297774,0.9995176359878415,0,0.6,0
1027,0.09646915426569914,0.00011208891444347425,0.9996070050922318,0,0.6,0
1028,0.0964971081235884,0.00012144593605700595,0.999625719135459,0,0.6,0
1029,0.09641762466808174,0.0001187788799198771,0.9995653958271878,0,0.6,0
1030,0.09648779017095865,0.00014021858275972451,0.9996070050922318,0,0.6,0
1031,0.09659995722336967,0.00011214751791913477,0.9997286463732077,0,0.6,0
1032,0.09640809661999843,0.00020469077790954445,0.9996131158002243,0,0.6,0
1033,0.09648780970545055,0.00010282956528938216,0.99952279189771,0,0.6,0
1034,0.09647847221832889,0.0001494779319138166,0.9995882910490048,0,0.6,0
1035,0.0964690761277316,0.0001682505786165297,0.9994853833457479,0,0.6,0
1036,0.09647485275604653,0.0001759671015747142,0.9989640125412602,0,0.6,0
1037,0.09655315258081014,0.00012142640156511911,0.9981855973246186,0,0.6,0
1038,0.09650644561071005,0.00011204984545970599,0.9980827482248373,0,0.6,0
1039,0.09649386898590318,9.972278375326353e-05,0.9986683639865078,0,0.6,0
1040,0.09652514011944521,6.540147883526614e-05,0.9989147417687659,0,0.6,0
1041,0.09655325025326958,7.477803494068469e-05,0.9988493598244225,0,0.6,0
1042,0.09651582216681548,6.540147883527156e-05,0.9989333972085173,0,0.6,0
1043,0.09646530477480823,8.070655389662112e-05,0.9990403166585466,0,0.6,0
1044,0.09653451667555063,0.00010282956528938216,0.9990269674246525,0,0.6,0
1045,0.09649718626155596,0.00011212798342724793,0.9991578875892743,0,0.6,0
1046,0.09652251292961807,0.0001284065937781172,0.999183496510811,0,0.6,0
1047,0.09655321118428581,0.00011212798342724793,0.9993356514654395,0,0.6,0
1048,0.0965065042141857,4.670697010010038e-05,0.9995134348760967,0,0.6,0
1049,0.09645577672672494,0.00016643905349140743,0.9994317041566967,0,0.6,0
1050,0.0964971081235884,0.00014949746640570343,0.9993824365735072,0,0.6,0
1051,0.09645977770959373,0.00014017951377594539,0.9994479357248018,0,0.6,0
1052,0.09654152915947471,0.0001379346418614294,0.9995176359878415,0,0.6,0
1053,0.09656252913691556,0.00015881541903546147,0.99952279189771,0,0.6,0
1054,0.09645977770959373,0.00019622397099768523,0.999625719135459,0,0.6,0
1055,0.0964971081235884,0.00010279049630560306,0.999485363811256,0,0.6,0
1056,0.09644624867864163,0.00015695087171806638,0.9989736003888086,0,0.6,0
1057,0.09646909566222348,0.00010282956528938216,0.9984007111492703,0,0.6,0
1058,0.09648780970545055,0.0001308224921624191,0.9982978229805053,0,0.6,0
1059,0.09656068492141624,9.978258321822027e-05,0.9988971766725921,0,0.6,0
1060,0.0964971276580803,9.347254367585586e-05,0.9992607952925313,0,0.6,0
1061,0.09643170664475315,0.00011218658690290845,0.9994947208328695,0,0.6,0
1062,0.09659056113277237,0.0001308224921624191,0.9996350761570725,0,0.6,0
1063,0.09652253286277306,8.066668758664997e-05,0.9995844718565093,0,0.6,0
1064,0.09651582216681548,0.00017750992777063263,0.9995602199841643,0,0.6,0
1065,0.09648780970545055,0.00012146547054888739,0.99952279189771,0,0.6,0
1066,0.09644622874548664,4.257442840839757e-05,0.9995080880066032,0,0.6,0
1067,0.09650644561071005,0.00010279049630560306,0.9995602199841643,0,0.6,0
1068,0.09653453621004253,0.00021489894524096955,0.9995882910490048,0,0.6,0
1069,0.09641764460123672,0.00010927076499156131,0.9994317240898518,0,0.6,0
1070,0.09645975817510184,0.00018680834590850383,0.9994947208328695,0,0.6,0
1071,0.09655321118428581,9.345300918396902e-05,0.9996631472219131,0,0.6,0
1072,0.09645977770959373,9.33944057083085e-05,0.999625719135459,0,0.6,0
1073,0.09647485275604653,9.978258321822027e-05,0.9995654356934979,0,0.6,0
1074,0.0964656380571596,0.00021507475566794572,0.9996632839633561,0,0.6,0
1075,0.09650642607621818,7.477803494067926e-05,0.9995041169234667,0,0.6,0
1076,0.09645577672672494,0.00023333472162442696,0.998830560068629,0,0.6,0
1077,0.09646796266169408,4.6765573575755485e-05,0.998288407355416,0,0.6,0
1078,0.09655317211530204,8.415459104609783e-05,0.9981575067252861,0,0.6,0
1079,0.09642721251563,0.00011879881307486268,0.9987541562855677,0,0.6,0
1080,0.09648782923994242,5.602492272985299e-05,0.9992234258095528,0,0.6,0
1081,0.0964410245973829,8.407645307855045e-05,0.9994479357248018,0,0.6,0
1082,0.09651292508206981,0.00012836672746814604,0.9996131158002243,0,0.6,0
1083,0.09647841361485322,0.00013084202665430595,0.9996070050922318,0,0.6,0
1084,0.09653445807207499,9.343347469207675e-05,0.9995882910490048,0,0.6,0
1085,0.09645045975696397,0.00010275142732183478,0.9995695770057778,0,0.6,0
1086,0.09642715271616505,0.0001379346418614294,0.9996035678189862,0,0.6,0
1087,0.09644108320085856,0.00014012091030029029,0.99952279189771,0,0.6,0
1088,0.09645971910611807,0.00014945839742192975,0.9994947208328695,0,0.6,0
1089,0.09650341696714149,9.021466882494233e-05,0.9989544844931769,0,0.6,0
1090,0.09652517918842901,0.0001588935570030034,0.9982417589887916,0,0.6,0
1091,0.09652514011944523,0.0001775489967544009,0.9973342255647387,0,0.6,0
1092,0.09652249299646308,9.978258321822027e-05,0.9977617841645896,0,0.6,0
1093,0.0965065042141857,0.00014015997928405855,0.9979891975431939,0,0.6,0
1094,0.0964690761277316,7.473896595690558e-05,0.9984474181193704,0,0.6,0
1095,0.09655315258081014,8.409598757043189e-05,0.9984100291019,0,0.6,0
1096,0.09647479295658158,2.349839908679843e-05,0.9980672597647501,0,0.6,0
1097,0.09657190569302099,2.807106484058431e-05,0.9979985545648075,0,0.6,0
1098,0.09645975817510184,9.34920781677427e-05,0.9979798600560722,0,0.6,0
1099,0.09652245313015312,4.259436156338315e-05,0.9979813677999154,0,0.6,0
1100,0.09649716672706407,9.341394020018991e-05,0.9983071018641513,0,0.6,0
1101,0.09644106366636666,5.604445722173441e-05,0.9989802213855686,0,0.6,0
1102,0.09638898072436684,5.20825433367242e-05,0.9992502925131693,0,0.6,0
1103,0.09639433716177469,0.0,0.9994479357248018,0,0.6,0
1104,0.09641301213601797,9.343347469207675e-05,0.9994385787031882,0,0.6,0
1105,0.09639437623075846,0.00011212798342724793,0.9994011506167342,0,0.6,0
1106,0.09645571692725997,0.00015687113909812407,0.9995940198377478,0,0.6,0
1107,0.09645971910611807,0.00011212798342724793,0.9994572927464154,0,0.6,0
1108,0.09642238869212338,0.0001775489967544009,0.9992140101844637,0,0.6,0
1109,0.09646532470796322,0.00015697080487305737,0.9992407644650859,0,0.6,0
1110,0.09647841361485325,9.347254367585586e-05,0.9990737134637364,0,0.6,0
1111,0.09646917380019102,9.347254367585586e-05,0.9990549994205095,0,0.6,0
1112,0.09651292508206981,0.00013789477555145824,0.9991070927277499,0,0.6,0
1113,0.09649708858909653,0.00010281003079749532,0.9991578875892743,0,0.6,0
1114,0.09644108320085856,0.00017756853124628773,0.99936372253028,0,0.6,0
1115,0.09647843314934512,8.411552206232957e-05,0.9994105076383477,0,0.6,0
1116,0.09647485275604653,0.0001474228236347596,0.9987445883711745,0,0.6,0
1117,0.09653453621004253,0.00011212798342724793,0.9979049648141801,0,0.6,0
1118,0.09654387369716416,9.33944057083085e-05,0.9979517889912317,0,0.6,0
1119,0.09641760473492675,9.970285059827254e-05,0.9987445485048644,0,0.6,0
1120,0.09635698721328811,9.343347469207675e-05,0.9991579071237663,0,0.6,0
1121,0.09644108320085856,0.0001495365353894717,0.9994198841944533,0,0.6,0
1122,0.09646528484165326,0.00013787484239646182,0.9995844718565093,0,0.6,0
1123,0.09638499967465304,0.00012148500504077423,0.9995508629625507,0,0.6,0
1124,0.09653445807207499,7.475850044879784e-05,0.9996631472219131,0,0.6,0
1125,0.09649392878536812,0.00016647891980137316,0.9996417597439392,0,0.6,0
1126,0.09644100506289102,0.00020563959608687206,0.9996912182867536,0,0.6,0
1127,0.09646911519671537,0.00011212798342724793,0.9995882910490048,0,0.6,0
1128,0.09648779017095865,0.00014017951377594539,0.9996631472219131,0,0.6,0
1129,0.09642711284985507,0.00010927076499156131,0.999603587752141,0,0.6,0
1130,0.09645038161899643,0.00014949746640570343,0.9994947208328695,0,0.6,0
1131,0.09645973864060994,6.540147883526614e-05,0.9995415059409372,0,0.6,0
1132,0.09638902059067683,0.00017598703472969978,0.99946993594796,0,0.6,0
1133,0.09640371371788012,0.00048633071000083914,0.9995134348760967,0,0.6,0
1134,0.09637558404956387,0.0003179824589248698,0.9994947208328695,0,0.6,0
1135,0.09636634423490166,0.00024304814804910666,0.9995322075227993,0,0.6,0
1136,0.09642715271616505,0.00017618636627956099,0.9989355081296304,0,0.6,0
1137,0.09653344227849689,9.337487121639453e-06,0.9982415441093808,0,0.6,0
1138,0.09651588077029113,0.00022437317380582232,0.9982042136953863,0,0.6,0
1139,0.09642717264932003,0.0001474228236347596,0.9988495563653307,0,0.6,0
1140,0.09643166757576938,9.345300918396902e-05,0.9991953352102204,0,0.6,0
0,0.00524912466048362,0.027647239130986333,0.994697188649473,0,5.4,1
1,0.002893622197987317,0.018323034390476188,1.0,0,5.4,1
2,0.004788133713590455,0.02366124453844675,0.9993849748931751,0,5.4,1
3,0.0,0.010124309450238848,0.9994608253171685,0,5.4,1
4,0.0002414074691651708,0.015775345095036253,0.9993053176816277,0,5.4,1
5,0.0019471114205035452,0.016156594504686206,0.9993170539421494,0,5.4,1
6,0.0019924362122858493,0.01617184785841336,0.9993849748931751,0,5.4,1
7,0.0021043288350052125,0.0159783007344619,0.9992568644820233,0,5.4,1
8,0.002010547204242286,0.016112991865744063,0.9994348416265142,0,5.4,1
9,0.001827401053667626,0.01610753498499905,0.9993169101867877,0,5.4,1
10,0.001888368976373159,0.01618543583356981,0.9993441920429494,0,5.4,1
11,0.0019244231850410363,0.016098334277908567,0.9992107645031003,0,5.4,1
12,0.0019155070771730853,0.016149289548682878,0.9993532948508189,0,5.4,1
13,0.0018476239756602978,0.016040491123648862,0.9992808698077498,0,5.4,1
14,0.0017582125078949777,0.016250657095295416,0.9993583808791241,0,5.4,1
15,0.0019380843116600542,0.01604955608200532,0.9993442298924623,0,5.4,1
16,0.0017858532065546389,0.016079913575033498,0.9993445701741414,0,5.4,1
17,0.001707202282539337,0.015981672980492537,0.9993352027836188,0,5.4,1
18,0.001729779517026306,0.016076807731344157,0.9993034659669932,0,5.4,1
19,0.0018736360534493486,0.016379949211914893,0.9993584194565126,0,5.4,1
20,0.0016483462898700392,0.016226142984769702,0.9994483160531316,0,5.4,1
21,0.001776671788158267,0.01611681284686597,0.9993584966112888,0,5.4,1
22,0.001734321458582778,0.016257917650908525,0.9994619986520704,0,5.4,1
23,0.0018413082021209518,0.01631072208875402,0.9993907280191467,0,5.4,1
24,0.0018565564607213607,0.01618547368308278,0.9993351649341059,0,5.4,1
25,0.0016059089792022417,0.016486017740825903,0.999349199460728,0,5.4,1
26,0.001766020425695663,0.016262440667708513,0.9994483917521576,0,5.4,1
27,0.0017490118008044965,0.016416829195053256,0.9993584387452066,0,5.4,1
28,0.0016618585660005461,0.01642089765375997,0.9994800717945138,0,5.4,1
29,0.0019200111692165881,0.016515994555098626,0.9994438308858444,0,5.4,1
30,0.0019336046034374068,0.01648144632032183,0.9993030416157226,0,5.4,1
31,0.0016437286492876257,0.016325838601934286,0.9993985628683318,0,5.4,1
32,0.001702622491469893,0.01638469459460358,0.9994529904679835,0,5.4,1
33,0.0016659546839667405,0.016407589910574553,0.9995429929704512,0,5.4,1
34,0.0015305207559925325,0.01650694852149865,0.9994982395607397,0,5.4,1
35,0.0014997440068206804,0.01643067847742425,0.9995569386962928,0,5.4,1
36,0.0014263399715409304,0.0165838965813679,0.999461979727314,0,5.4,1
37,0.0017074253763032885,0.01678146266850911,0.9994922637049419,0,5.4,1
38,0.0017615163336521615,0.016651931080932568,0.9994845758865574,0,5.4,1
39,0.0015895659962266839,0.01650691067198568,0.9993894979099751,0,5.4,1
40,0.0016797461002554077,0.01661990056664357,0.9996077065391904,0,5.4,1
41,0.001670980298626464,0.016665462281819563,0.9995887945205219,0,5.4,1
42,0.0014673968667981744,0.016776794804534485,0.999376917314164,0,5.4,1
43,0.0015531736895054412,0.01649332269682923,0.9993668828259753,0,5.4,1
44,0.0013936561892155597,0.01673059838214098,0.9994737658472904,0,5.4,1
45,0.0015260545134620003,0.016670042072889007,0.9995435265030091,0,5.4,1
46,0.001426377821053901,0.016534143396568033,0.9993804518763751,0,5.4,1
47,0.0015413111426277794,0.016518364880848412,0.9994692330041747,0,5.4,1
48,0.001675446541156996,0.016629259222663173,0.9995298249793138,0,5.4,1
49,0.001421296887875221,0.01664763770877378,0.9995153136944034,0,5.4,1
50,0.0015261112877314564,0.016665462281819563,0.9996702466724348,0,5.4,1
51,0.0014351268815521077,0.01687379764721379,0.9995661201146891,0,5.4,1
52,0.0012951157100718274,0.016688039516306534,0.9995751876206089,0,5.4,1
53,0.0014445455872797936,0.01671076814884538,0.9995163127031833,0,5.4,1
54,0.0015690097073697707,0.01659685057718209,0.9994506965691348,0,5.4,1
55,0.001313169927758808,0.016778632325601683,0.9994982206359834,0,5.4,1
56,0.0015504925610241487,0.016901380479791117,0.9995338501294432,0,5.4,1
57,0.0015441276559054664,0.01677416608307115,0.9994347280779751,0,5.4,1
58,0.0014898136047926417,0.017109172122374016,0.9994483539026444,0,5.4,1
59,0.0014720647307727996,0.016943044059068768,0.9995568615415166,0,5.4,1
60,0.0015531736895054412,0.017045849887174187,0.9993804708011316,0,5.4,1
61,0.001495095431540166,0.01690147692326167,0.9994507737239111,0,5.4,1
62,0.0015487074469749105,0.01703680385357421,0.9994483728274008,0,5.4,1
63,0.0016012989813099468,0.017049112587979778,0.9994784337112651,0,5.4,1
64,0.0015623332716443296,0.017086557038374077,0.9994664838193575,0,5.4,1
65,0.0014812075717809492,0.017063039025127215,0.9993999673036253,0,5.4,1
66,0.001535062697549006,0.016982433028191933,0.999330604067793,0,5.4,1
67,0.0016121243059571658,0.01725867769860792,0.999421234726601,0,5.4,1
68,0.0014951340089283853,0.017109100426661947,0.9993999673036253,0,5.4,1
69,0.0014671606712797318,0.016950677286809587,0.9993940398515316,0,5.4,1
70,0.0016520282468193057,0.017326136812787916,0.9993122616115071,0,5.4,1
71,0.0014309386873668584,0.017303983565633743,0.9996023635709219,0,5.4,1
72,0.0016393002562700642,0.0170730069127306,0.9994438687353573,0,5.4,1
73,0.001453624739203618,0.01727072039460982,0.9993906701530643,0,5.4,1
74,0.0014399657962103495,0.01747154335955463,0.9992808508829929,0,5.4,1
75,0.0014766940173592052,0.017021491178014228,0.9994599165649194,0,5.4,1
76,0.0015487074469749105,0.017190794597095133,0.9993714436922883,0,5.4,1
77,0.0014490147413113229,0.01721532326512584,0.9995799693970602,0,5.4,1
78,0.0014309008378538878,0.01731759046554668,0.9994620175768268,0,5.4,1
79,0.0015078867472361078,0.017095603071974053,0.9994120940692185,0,5.4,1
80,0.001467435444186394,0.017376827500909055,0.9994923215710243,0,5.4,1
81,0.0014173885617233808,0.01733115951594664,0.99930342811748,0,5.4,1
82,0.0014904854336478695,0.017275291815113898,0.9993076323249207,0,5.4,1
83,0.0014128655449233926,0.017412611667859394,0.999348771834019,0,5.4,1
84,0.0013982468984137443,0.017469123902225513,0.9994322758662597,0,5.4,1
85,0.0013403648028281901,0.017371866667146532,0.9995344047703832,0,5.4,1
86,0.0013720637699410766,0.017127358813356395,0.9994302618354446,0,5.4,1
87,0.0014812075717809492,0.017506138906222643,0.9994599937196956,0,5.4,1
88,0.001525978814436059,0.01746240270217223,0.999321558034193,0,5.4,1
89,0.0014535668731212878,0.017446054624069923,0.9993722880275776,0,5.4,1
90,0.0015395478648360236,0.01748954080297216,0.9994892313766528,0,5.4,1
91,0.0012459047923327902,0.01717379470670696,0.9994091680107159,0,5.4,1
92,0.0013539717027411253,0.01744885257652875,0.9993669017507317,0,5.4,1
93,0.001575921246800778,0.017358316541503053,0.9994439255096269,0,5.4,1
94,0.0013150547607172192,0.017432282496475368,0.99954768012312,0,5.4,1
95,0.001535062697549006,0.01757561059546732,0.9994347848522446,0,5.4,1
96,0.0013982083210255247,0.017404526065651044,0.999464584428894,0,5.4,1
97,0.0013629041878021897,0.017525895260180425,0.9993986007178447,0,5.4,1
98,0.0012225960432201395,0.017652577580093053,0.9994709311371314,0,5.4,1
99,0.0013381626162610259,0.01751533961331312,0.9995568615415166,0,5.4,1
100,0.0014581146376797568,0.017530399352223926,0.9994303375344706,0,5.4,1
101,0.0014443275886425874,0.017501451753553908,0.9996169265349749,0,5.4,1
102,0.0014988785631491035,0.017720498531118813,0.9995434508039831,0,5.4,1
103,0.0013520118986320216,0.01768153100176507,0.9994276658683674,0,5.4,1
104,0.0014263588962974158,0.017684295471962427,0.9994392700195315,0,5.4,1
105,0.0013519926099379112,0.01756606887882248,0.999436885864152,0,5.4,1
106,0.0013584379452716562,0.01781107241565748,0.9994166738602881,0,5.4,1
107,0.0013901747618975133,0.01780666294739641,0.9994076656762012,0,5.4,1
108,0.0013382011936492455,0.017759939543322313,0.9995107808512876,0,5.4,1
109,0.0013901936866539985,0.017697921296631842,0.9994031426594012,0,5.4,1
110,0.001384301172572199,0.017824633823367325,0.9994046351676001,0,5.4,1
111,0.001367578602654059,0.017806568323613978,0.9993669396002447,0,5.4,1
112,0.0014218358794974276,0.017842790307526852,0.9994121508434881,0,5.4,1
113,0.0014027990302237093,0.017796877392543008,0.9994507544352171,0,5.4,1
114,0.0012814898854024083,0.017670745346318947,0.9995117896863832,0,5.4,1
115,0.0013151126267995491,0.017930683063584228,0.9994599165649194,0,5.4,1
116,0.0013811476530540222,0.017788381632631602,0.9994484296016705,0,5.4,1
117,0.0013381819049551364,0.017833795953069588,0.9993491223059515,0,5.4,1
118,0.0013539149284716692,0.01767076427107543,0.9993849181189058,0,5.4,1
119,0.0013765867867410633,0.01776586117241409,0.9995388899376701,0,5.4,1
120,0.0013474790555161671,0.01778308597625434,0.9994737465585963,0,5.4,1
121,0.0012362786421590147,0.017675381911657847,0.9995072666695832,0,5.4,1
122,0.0013012440557344444,0.01793992234806293,0.999432314443648,0,5.4,1
123,0.0012542950103330247,0.017725059397431773,0.9994665405936268,0,5.4,1
124,0.0014858368583673548,0.017889154505165348,0.9993584001678184,0,5.4,1
125,0.0013630366610975855,0.017734181130057692,0.9993940587762883,0,5.4,1
126,0.0012814520358894377,0.018033059809230107,0.9994981638617139,0,5.4,1
127,0.001425829730991077,0.017842958082771847,0.9993583615904301,0,5.4,1
128,0.0012996008773588448,0.017707043029257765,0.9994710257609138,0,5.4,1
129,0.0012319976438794646,0.017884505929884838,0.9994600515857781,0,5.4,1
130,0.0013947356282104707,0.018019452909317172,0.9994030858851318,0,5.4,1
131,0.0013658804696971279,0.01787065664751384,0.9994553451444154,0,5.4,1
132,0.001263397818202457,0.017897180057665617,0.9995253587367833,0,5.4,1
133,0.0014445266625233068,0.017869985182596238,0.999461979727314,0,5.4,1
134,0.0012735454909924516,0.01781074596360811,0.9994230751591692,0,5.4,1
135,0.0013947167034539867,0.017797541214770486,0.999461979727314,0,5.4,1
136,0.0014674547328805032,0.018050697318336785,0.9993631066091812,0,5.4,1
137,0.0014173128626974395,0.01794695216722197,0.9994166360107752,0,5.4,1
138,0.0014400036457233201,0.017851893115396283,0.9994936219201573,0,5.4,1
139,0.0013890269026291542,0.017893745214363536,0.9995338308407492,0,5.4,1
140,0.0013721016194540472,0.01785647290646573,0.9995343669208702,0,5.4,1
141,0.0013243711999723603,0.018027589462792978,0.999279972337567,0,5.4,1
142,0.001267920835002445,0.01805569381798653,0.9994936786944267,0,5.4,1
143,0.0014258683083792965,0.017990632324878176,0.9994599358536136,0,5.4,1
144,0.001317692944558796,0.018028517867673635,0.9994710636104269,0,5.4,1
145,0.0012678640607329892,0.01791076803282207,0.9995118086111399,0,5.4,1
146,0.0013474404781279462,0.017875343800182575,0.9994461251486307,0,5.4,1
147,0.0011683198416202857,0.0179922391094913,0.9994891178281138,0,5.4,1
148,0.0013335526183687308,0.018041458033858086,0.999473862290761,0,5.4,1
149,0.0013404026523411608,0.01810092398598641,0.9994257955929139,0,5.4,1
150,0.0012781747775788572,0.0179953001888528,0.9993675815862146,0,5.4,1
151,0.0015033448056796343,0.018295659730220196,0.9995344426198961,0,5.4,1
152,0.0014173696369668954,0.018037563901273607,0.9994076467514446,0,5.4,1
153,0.0014766361512768738,0.018226050836491,0.9995614329620204,0,5.4,1
154,0.0013494297611846518,0.018024032700386616,0.9994755866272269,0,5.4,1
155,0.0013982276097196352,0.018083063747053405,0.999492244416248,0,5.4,1
156,0.001349448685941137,0.0180465910101171,0.9994619608025576,0,5.4,1
157,0.0014535668731212878,0.018110685157018955,0.9995430315478393,0,5.4,1
158,0.0013630555858540722,0.01806924394363001,0.9993080457580625,0,5.4,1
159,0.001485309512749139,0.018245925470176814,0.9994619986520704,0,5.4,1
160,0.0015275004376450018,0.018119982307579986,0.9994553644331093,0,5.4,1
161,0.001195439017663728,0.01809185902762995,0.9994393078690446,0,5.4,1
162,0.0012643447839019721,0.018138403010455058,0.99963534723785,0,5.4,1
163,0.001304123894158833,0.018005864934160724,0.9994754920034444,0,5.4,1
164,0.0012678829854894731,0.01806931964265595,0.9994710257609138,0,5.4,1
165,0.0011627898094127057,0.018156881579412455,0.9995661972694656,0,5.4,1
166,0.0013357850117587473,0.018336366881420083,0.9995615807206962,0,5.4,1
167,0.0013474019007397265,0.018322995813087967,0.9993676780296854,0,5.4,1
168,0.0013267011286458004,0.01830022059653315,0.9995026868785138,0,5.4,1
169,0.0013935211683567892,0.01828144796597498,0.9994322180001775,0,5.4,1
170,0.0014988407136361328,0.01829567865497668,0.9995162937784268,0,5.4,1
171,0.0013843783273486394,0.01838304151785247,0.99937234589366,0,5.4,1
172,0.001335822861271718,0.018304705763820168,0.9995117896863832,0,5.4,1
173,0.0010822311243686349,0.01835001163084599,0.9994257198938881,0,5.4,1
174,0.0012920626373380739,0.018295258670957753,0.9994461251486307,0,5.4,1
175,0.001277023642871876,0.018331919563646038,0.9993804329516187,0,5.4,1
176,0.001412076892090631,0.018410740082594457,0.9994183494291123,0,5.4,1
177,0.0014219494280363395,0.018341003446758982,0.9994031048098883,0,5.4,1
178,0.0012950400110458861,0.01838172952271536,0.9994121319187317,0,5.4,1
179,0.0012826883320006014,0.018530657893876465,0.999529259420245,0,5.4,1
180,0.001444308299948477,0.01841070150520624,0.9994414958620443,0,5.4,1
181,0.0013902315361669691,0.01838621469000238,0.9994031048098883,0,5.4,1
182,0.0013358607107846873,0.018436043573828186,0.9994076089019317,0,5.4,1
183,0.0013842818838780886,0.018263027263099908,0.9993307787578529,0,5.4,1
184,0.0013946977786975013,0.01849946043281044,0.9994121319187317,0,5.4,1
185,0.0015458246970495235,0.018535402912627532,0.9994737851359844,0,5.4,1
186,0.0013810530292715955,0.01846323844889757,0.9994121697682445,0,5.4,1
187,0.001444450963497367,0.018404382456228267,0.9993713679932624,0,5.4,1
188,0.001435049726775667,0.018512314345777835,0.9994784529999592,0,5.4,1
189,0.001349448685941137,0.01854927039187976,0.9993803951021059,0,5.4,1
190,0.0015136318665798971,0.01852604789598417,0.9994645651401999,0,5.4,1
191,0.0013584000957586868,0.01859461410841855,0.9993804708011318,0,5.4,1
192,0.0013992397202539735,0.018585416676766695,0.9994529526184704,0,5.4,1
193,0.0015827432575761064,0.018530754337347015,0.9993723266049657,0,5.4,1
194,0.001544108731148981,0.018617172418149034,0.9993714436922881,0,5.4,1
195,0.0014812268604750597,0.018595313596533262,0.9993353501783568,0,5.4,1
196,0.001503363730436121,0.018553850182949205,0.9994438308858444,0,5.4,1
197,0.0013243133338900303,0.01843838078125412,0.9993768594480816,0,5.4,1
198,0.0013992964945234293,0.01861715349339255,0.999434803777001,0,5.4,1
199,0.0013612704718048312,0.0184752993417807,0.9995384408386414,0,5.4,1
200,0.001308722609984761,0.018526617458366854,0.9993714058427753,0,5.4,1
201,0.0012995819526023596,0.01844512745694113,0.9993079511342798,0,5.4,1
202,0.0013612897604989417,0.01873374855416089,0.999404615878906,0,5.4,1
203,0.001412827695410422,0.018481349440854004,0.999448334977888,0,5.4,1
204,0.0013221970366022989,0.018648852460505436,0.9994257388186446,0,5.4,1
205,0.0013797490407622339,0.018599962171813773,0.9993907473078408,0,5.4,1
206,0.0013381433275669154,0.01865532072390954,0.9993445508854473,0,5.4,1
207,0.0013085901366893637,0.018925078206164944,0.9993441920429494,0,5.4,1
208,0.0012633599686894862,0.018920649813147384,0.999434803777001,0,5.4,1
209,0.0014535475844271789,0.01868301928865153,0.9994092065881043,0,5.4,1
210,0.0012678829854894731,0.01869421510180071,0.9994167306345575,0,5.4,1
211,0.0013675596778975738,0.018680570352374803,0.9992944010086364,0,5.4,1
212,0.0013151319154936596,0.018724547847070408,0.9995015415668088,0,5.4,1
213,0.001412827695410422,0.018707727377931218,0.9993985628683318,0,5.4,1
214,0.0014537018939800583,0.018627660736555765,0.9993768401593874,0,5.4,1
215,0.0013087036852282758,0.01881198386140876,0.9993894979099751,0,5.4,1
216,0.0014351847476344363,0.018844562101822965,0.9994276465796734,0,5.4,1
217,0.0012950400110458861,0.01881190816238282,0.9992400491080108,0,5.4,1
218,0.0014127709211409674,0.018630760393305485,0.9993079511342798,0,5.4,1
219,0.0012367040852423092,0.018853782097607553,0.9994138358746906,0,5.4,1
220,0.0015088868478288315,0.018733883575019657,0.9994692137154806,0,5.4,1
221,0.0014309765368798293,0.018789198454600455,0.9994031237346446,0,5.4,1
222,0.0013403648028281901,0.0185040212991234,0.9994392889442881,0,5.4,1
223,0.0014859333018379043,0.018641490730232652,0.9993907280191467,0,5.4,1
224,0.001358494719541112,0.018857195104652155,0.9992672061335671,0,5.4,1
225,0.001349448685941137,0.018798244488200434,0.9993623787339317,0,5.4,1
226,0.0012689354931001565,0.01885839209549985,0.9993907087304528,0,5.4,1
227,0.0015034772789750315,0.01865347010108785,0.9994393078690446,0,5.4,1
228,0.0012412947944404954,0.01885843067288807,0.9993353501783568,0,5.4,1
229,0.0014083046786104352,0.018920498415095497,0.9994076656762012,0,5.4,1
230,0.0014212004444046715,0.018752265700506508,0.9994092837428806,0,5.4,1
231,0.0012497909182895219,0.01903838072324246,0.9994121886930012,0,5.4,1
232,0.0013041617436718037,0.018893454938077998,0.9993396690261495,0,5.4,1
233,0.0012458855036386798,0.01869218141835379,0.9993906508643703,0,5.4,1
234,0.0014308629883409186,0.01895229200599081,0.9994076089019317,0,5.4,1
235,0.0012504569241427554,0.018627660736555765,0.9994691172720097,0,5.4,1
236,0.0013946977786975013,0.018658049892157295,0.999452857994688,0,5.4,1
237,0.0013889304591586046,0.019029193481844096,0.9994000444584018,0,5.4,1
238,0.00121356893437665,0.018875325021365078,0.9993894979099751,0,5.4,1
239,0.0013012054783462235,0.018789203549727202,0.9993676780296852,0,5.4,1
240,0.0013539338532281547,0.018739539893583016,0.9995027436527832,0,5.4,1
241,0.001213512160107194,0.01869870026908773,0.9994891178281138,0,5.4,1
242,0.0011812683783701055,0.01871073714208763,0.9994092451654923,0,5.4,1
243,0.0013629988115846149,0.01879389179420881,0.9994846515855832,0,5.4,1
244,0.001209008068063691,0.01875757518651351,0.9995117896863832,0,5.4,1
245,0.0013797490407622339,0.018890700658134137,0.9995246687110467,0,5.4,1
246,0.0012407448846895469,0.018866241138252127,0.9995253587367833,0,5.4,1
247,0.0012965569030657074,0.01899688491920981,0.9994553065670271,0,5.4,1
248,0.0013357850117587473,0.019115385557381168,0.9992445910495672,0,5.4,1
249,0.0011905269515429166,0.018890700658134137,0.9993907473078408,0,5.4,1
250,0.0011230518241074363,0.018916051097321453,0.9993851073664707,0,5.4,1
251,0.0013566604739125377,0.018876832087069032,0.9994737658472904,0,5.4,1
252,0.001168281992107315,0.018956871797060255,0.9993533327003318,0,5.4,1
253,0.0012273876459871682,0.01898764563473111,0.999436885864152,0,5.4,1
254,0.0013267579029152565,0.019106244899998764,0.9993668639012189,0,5.4,1
255,0.0014036870380280204,0.019146989900711626,0.9994574188610008,0,5.4,1
256,0.001458176871013583,0.019029174193149985,0.9994045194354355,0,5.4,1
257,0.0012588180271330127,0.018929676921990872,0.9993940020020187,0,5.4,1
258,0.0013901936866539985,0.018766621220113487,0.9995208546447397,0,5.4,1
259,0.0014119997373141903,0.019107659889483666,0.999372191584107,0,5.4,1
260,0.00157819112576614,0.01891837993418202,0.9994137972973022,0,5.4,1
261,0.0012634356677154277,0.019097274565424732,0.9994166738602881,0,5.4,1
262,0.0013629798868281297,0.01914693312644217,0.9993940587762883,0,5.4,1
263,0.001019725565198672,0.0189968656305157,0.9994322951549539,0,5.4,1
264,0.0012950778605588568,0.018970421922703734,0.9994077035257141,0,5.4,1
265,0.0012634167429589423,0.019183211884624497,0.9994121508434881,0,5.4,1
266,0.001125909826274344,0.01900612420368851,0.9992245752080829,0,5.4,1
267,0.0014626187297232583,0.01889341708856503,0.9993442298924623,0,5.4,1
268,0.0013058733423208487,0.01922302556895571,0.9994968929915283,0,5.4,1
269,0.001354009552254096,0.019056434940929443,0.9994755298529574,0,5.4,1
270,0.0011628669641891448,0.01917223843736402,0.9994461637260188,0,5.4,1
271,0.0009690800053429991,0.018997541098747177,0.9994574377857576,0,5.4,1
272,0.001335879635541174,0.018884314280695595,0.9994619418778011,0,5.4,1
273,0.0012828426415534824,0.019038452055016905,0.9995015029894205,0,5.4,1
274,0.0011950212172705517,0.01912611916974696,0.9994968929915283,0,5.4,1
275,0.0013992964945234293,0.01890248204692149,0.9994574377857576,0,5.4,1
276,0.0012769857933589053,0.01902025080652954,0.9995072855943399,0,5.4,1
277,0.0013197997794682848,0.01917231559214046,0.9994553644331093,0,5.4,1
278,0.0012316231520636306,0.019278308785963153,0.9993985250188187,0,5.4,1
279,0.0013177118693152815,0.019237582710006782,0.9993261567500188,0,5.4,1
280,0.0012736226457688922,0.019121470594466443,0.999464584428894,0,5.4,1
281,0.001426377821053901,0.01917872671733748,0.9993713869180189,0,5.4,1
282,0.00125510549942327,0.018959889203906788,0.999441437995962,0,5.4,1
283,0.0013176361702893402,0.019020194032260084,0.9994891367528703,0,5.4,1
284,0.0014166483125947064,0.019324599832139085,0.9994184458725829,0,5.4,1
285,0.001304123894158833,0.019011147998660105,0.9993079700590367,0,5.4,1
286,0.0012966533465362585,0.019089258475302705,0.9994045580128236,0,5.4,1
287,0.0012950589358023713,0.019119832875155215,0.9994121886930012,0,5.4,1
288,0.0012452489767330497,0.019337202628145426,0.9993577800181057,0,5.4,1
289,0.0013150933381054402,0.019227654855542113,0.9994737658472904,0,5.4,1
290,0.0012905169942458979,0.019350771678545386,0.999276327866193,0,5.4,1
291,0.0012995819526023596,0.019024717049060072,0.9993262135242884,0,5.4,1
292,0.0013566411852184272,0.019167686305554058,0.9992845437580711,0,5.4,1
293,0.0013151126267995491,0.01913996845211795,0.9992615323459979,0,5.4,1
294,0.001313169927758808,0.01912439374146817,0.9992808887325062,0,5.4,1
295,0.0013992018707410028,0.01936888267050182,0.9994438498106009,0,5.4,1
296,0.001268916204406046,0.019084552033939862,0.9993999865923198,0,5.4,1
297,0.0013177497188282521,0.019124374816711687,0.9994573999362444,0,5.4,1
298,0.0012362786421590147,0.019183249734137466,0.9994483160531316,0,5.4,1
299,0.001292024059949853,0.01919069771762731,0.9993677166070735,0,5.4,1
300,0.0013675029036281177,0.019273823618676137,0.9994619986520704,0,5.4,1
301,0.0012596769199273456,0.019296804823926542,0.9994091872994099,0,5.4,1
302,0.0012950400110458861,0.01936888267050182,0.9993941155505577,0,5.4,1
303,0.001268916204406046,0.019444652664279864,0.9994923022823301,0,5.4,1
304,0.001394678853941016,0.01942315887210168,0.9994484296016705,0,5.4,1
305,0.0014120576033965204,0.019209176286584712,0.9994876344183556,0,5.4,1
306,0.0013086090614458491,0.0192195284923198,0.9993985817930883,0,5.4,1
307,0.0011999809592202015,0.0192195284923198,0.9995660848127398,0,5.4,1
308,0.001296672635230369,0.019186164874511455,0.9994092837428806,0,5.4,1
309,0.001277023642871876,0.019165176591694005,0.9993442677419755,0,5.4,1
310,0.0012588180271330127,0.01932363357774546,0.9994257766681575,0,5.4,1
311,0.001342772614153321,0.019421467653959617,0.9994692330041747,0,5.4,1
312,0.001412827695410422,0.019237601634763263,0.9993714626170447,0,5.4,1
313,0.0012920433486439634,0.01927840340974558,0.9994738044246785,0,5.4,1
314,0.0014942609225666887,0.019568122506779112,0.9993126066243754,0,5.4,1
315,0.0011535312362398946,0.019333761961841344,0.9993677358957677,0,5.4,1
316,0.0012362029431330734,0.019273804693919653,0.9994303564592271,0,5.4,1
317,0.0012367040852423092,0.019463092655849043,0.9994045387241296,0,5.4,1
318,0.0013494297611846518,0.01926470188605022,0.9993261189005059,0,5.4,1
319,0.0014308629883409186,0.019373500311084237,0.9994891367528703,0,5.4,1
320,0.0012551247881173804,0.019333781250535455,0.9994507930126055,0,5.4,1
321,0.001255144076811491,0.01947692264952593,0.9993353308896628,0,5.4,1
322,0.0013856706698540102,0.019341782419214866,0.9992626452672542,0,5.4,1
323,0.0012678829854894731,0.01937340568730181,0.9994121508434881,0,5.4,1
324,0.0013104447628249241,0.019615376895847667,0.999349238038116,0,5.4,1
325,0.0013766246362540355,0.01933273638561489,0.9993351460093495,0,5.4,1
326,0.0013843397499604185,0.0192876812716125,0.9993214816072918,0,5.4,1
327,0.001295153559584798,0.019473063454953428,0.9993804140268623,0,5.4,1
328,0.001390099062871572,0.019323614652988975,0.9993397447251755,0,5.4,1
329,0.0014028761850001497,0.01952304191714299,0.9992799530488727,0,5.4,1
330,0.0012407070351765762,0.01946855936290992,0.9992220327398367,0,5.4,1
331,0.00133593640981063,0.019323614652988975,0.9992174150992543,0,5.4,1
332,0.001342811191541542,0.019642998305813217,0.9992891730446575,0,5.4,1
333,0.0012135962296985039,0.019499972638987405,0.9992199266328025,0,5.4,1
334,0.0014128466201669071,0.019522892338779234,0.9993487339845057,0,5.4,1
335,0.0012678640607329877,0.019522949113048686,0.9992989618749496,0,5.4,1
336,0.0012227776480948744,0.01930154984267761,0.9993353501783568,0,5.4,1
337,0.0012633788934459716,0.019328137669788963,0.9993759288595752,0,5.4,1
338,0.0013675029036281177,0.019436841471040554,0.9994302996849574,0,5.4,1
339,0.0010935433975577259,0.019564666919032418,0.9994739201568434,0,5.4,1
340,0.0011674769620814414,0.019458463369262637,0.9992569030594114,0,5.4,1
341,0.0013767003352799752,0.019531957297135694,0.999348696134993,0,5.4,1
342,0.0012905737685153537,0.019477624321266384,0.9993714058427753,0,5.4,1
343,0.0012920433486439634,0.019458444080568526,0.9992892887768221,0,5.4,1
344,0.0013811098035410516,0.019495678538953364,0.9993985439435752,0,5.4,1
345,0.00141203831470241,0.01945373763920568,0.9994045965902121,0,5.4,1
346,0.001313169927758808,0.019400562712858224,0.9993351081598365,0,5.4,1
347,0.0011365641002379447,0.019124336967198716,0.999430280760201,0,5.4,1
348,0.001167457673387331,0.01943537480241294,0.9993122809002014,0,5.4,1
349,0.0014535916208797686,0.019364416427971293,0.9993351460093495,0,5.4,1
350,0.001291985482561632,0.01938001625031718,0.999395318728345,0,5.4,1
351,0.0012769857933589053,0.019604401264961442,0.9995389467119395,0,5.4,1
352,0.001308646910958821,0.019387107210997172,0.9994800907192702,0,5.4,1
353,0.0011674962507755504,0.019532242624233472,0.9993861180212544,0,5.4,1
354,0.001195401168150756,0.01954554527229214,0.999425757743401,0,5.4,1
355,0.0012642869178196407,0.019532339067704022,0.999386195176031,0,5.4,1
356,0.0012406881104200908,0.0194142453117971,0.9992581790247237,0,5.4,1
357,0.001375100465481718,0.019578458335321087,0.9993076709023091,0,5.4,1
358,0.0012951157100718274,0.019468521513396952,0.9993805275754012,0,5.4,1
359,0.0013267579029152565,0.01963608130731784,0.9995163127031833,0,5.4,1
360,0.001268916204406046,0.01946772194243545,0.9993630487430989,0,5.4,1
361,0.001267920835002445,0.019708563124656558,0.9993759099348188,0,5.4,1
362,0.0013289811978646553,0.01952309978322532,0.9992891923333516,0,5.4,1
363,0.001512523312575008,0.01942315887210168,0.9993488664578013,0,5.4,1
364,0.001347498344210276,0.019499934061599188,0.9995799693970602,0,5.4,1
365,0.0011863362097942957,0.019518407171492214,0.9992989618749496,0,5.4,1
366,0.0012459240810269007,0.019421564097430163,0.999418465161277,0,5.4,1
367,0.0013222159613587843,0.01951835039722276,0.9994528958442008,0,5.4,1
368,0.0011093881499250479,0.01970404010785657,0.9993577989428624,0,5.4,1
369,0.0010935241088636154,0.019463034789766714,0.9992753430509805,0,5.4,1
370,0.001127555916150939,0.019740224242256472,0.9993986196426011,0,5.4,1
371,0.0011766969578660314,0.019490694777120485,0.9993677358957677,0,5.4,1
372,0.0011592359585073388,0.019663295107143708,0.9994439255096269,0,5.4,1
373,0.0014582540257900235,0.019726151866121523,0.9995430701252277,0,5.4,1
374,0.001381071954028081,0.01956365626424858,0.9993442677419755,0,5.4,1
375,0.0012769857933589053,0.019509304363622786,0.9994257388186446,0,5.4,1
376,0.0010335748475696677,0.019587659042411568,0.9993723073162717,0,5.4,1
377,0.0013448878196281784,0.019604382340204955,0.9993623408844189,0,5.4,1
378,0.0011230518241074363,0.01971757130874356,0.9994981827864703,0,5.4,1
379,0.001375139042869939,0.019633874753499182,0.9994369244415403,0,5.4,1
380,0.0014672174455491876,0.01959081328980499,0.9992401058822802,0,5.4,1
381,0.0012597347860096755,0.019412324812951465,0.9993261880486547,0,5.4,1
382,0.0013132267020282639,0.01972669304136948,0.9994121508434881,0,5.4,1
383,0.0011951176607411013,0.01961076689795537,0.9992568451933289,0,5.4,1
384,0.0013766435610105207,0.01962249333216139,0.9993079889837931,0,5.4,1
385,0.001218206227590799,0.019652314745068362,0.9994599937196956,0,5.4,1
386,0.0013268146771847123,0.01965869639131778,0.9993623598091753,0,5.4,1
387,0.0013313187692282152,0.019536423539666226,0.9992718805484191,0,5.4,1
388,0.0013242940451959199,0.0196521990129037,0.9993537901699261,0,5.4,1
389,0.0011909916998896811,0.019790072050838766,0.999348696134993,0,5.4,1
390,0.0011904883741546972,0.019666067583968803,0.9993768401593874,0,5.4,1
391,0.001132060008194442,0.01956369411376155,0.9995162748536703,0,5.4,1
392,0.0011773091009508047,0.01950924758935333,0.9992808319582365,0,5.4,1
393,0.0011627705207185952,0.01942613551793424,0.9995060551212306,0,5.4,1
394,0.0010704934080962491,0.01931065410629754,0.9994691558493981,0,5.4,1
395,0.0011637779000638123,0.019400581637614708,0.9995480684445656,0,5.4,1
396,0.0011908403018377985,0.019617951390604915,0.9995163505526962,0,5.4,1
397,0.001199689081245177,0.019638465462697364,0.9994645458515059,0,5.4,1
398,0.0011230328993509509,0.019522892338779234,0.9995842147294525,0,5.4,1
399,0.0011997083699392872,0.019804618273761093,0.999349199460728,0,5.4,1
400,0.001163796824820299,0.01953197622189218,0.9994574756352704,0,5.4,1
401,0.0011950597946587726,0.01957388691481701,0.9995153522717917,0,5.4,1
402,0.0013132077772717787,0.01972665519185651,0.9993080079085495,0,5.4,1
403,0.0012271001352636424,0.019509266514109815,0.9994484296016705,0,5.4,1
404,0.001292024059949853,0.01951386049874662,0.9993814887346681,0,5.4,1
405,0.001200037733489656,0.019704002258343598,0.9994212158018446,0,5.4,1
406,0.001372082694697562,0.019654211224030764,0.9993306986915752,0,5.4,1
407,0.0013059312084031786,0.019744591857690705,0.9994876151296613,0,5.4,1
408,0.0012815088101588935,0.019695012999013082,0.9993804708011318,0,5.4,1
409,0.0013889497478527136,0.01955535047977728,0.9994645651401999,0,5.4,1
410,0.0011637589753073269,0.019559133247448592,0.9993351838588623,0,5.4,1
411,0.0014904854336478695,0.01976766113584629,0.999450735146523,0,5.4,1
412,0.0011818888920202503,0.01984438610195159,0.9994619229530444,0,5.4,1
413,0.0012182255162849094,0.019666106161357024,0.9993952801509566,0,5.4,1
414,0.0012317177758460558,0.01958625242349203,0.9993985060940622,0,5.4,1
415,0.0011139490162380052,0.019568160356292084,0.9994937354686964,0,5.4,1
416,0.0014166676012888155,0.019716874004254602,0.9994692137154806,0,5.4,1
417,0.0011230518241074363,0.019713048291943574,0.9995253208872703,0,5.4,1
418,0.0011682630673508297,0.019418768328597086,0.9994120751444621,0,5.4,1
419,0.0011212612509938279,0.019670716159249323,0.9994276851570615,0,5.4,1
420,0.0011951176607411013,0.019726171154815637,0.9995014837007266,0,5.4,1
421,0.0011638157495767842,0.01951382738042277,0.9994031615841577,0,5.4,1
422,0.0011728050089073034,0.01964058539936134,0.9994890989033574,0,5.4,1
423,0.001347382612045616,0.019703140454048265,0.9994462023034073,0,5.4,1
424,0.0010912771579686099,0.019713048291943574,0.9994483728274008,0,5.4,1
425,0.0011275748409074243,0.01949117444690986,0.9994710446856703,0,5.4,1
426,0.001112079832597457,0.019698453301379534,0.9995245915562702,0,5.4,1
427,0.0012000188087331707,0.01964970713198726,0.9995163505526962,0,5.4,1
428,0.001028945560983262,0.0197399625711043,0.9994368279980698,0,5.4,1
429,0.00113658302499443,0.01981263036056925,0.9994348416265142,0,5.4,1
430,0.001218206227590799,0.01952302262844888,0.9994276658683674,0,5.4,1
431,0.0009464081470736024,0.019541022255492153,0.9995163316279397,0,5.4,1
432,0.0010278792237428398,0.01946397957184048,0.9995117707616268,0,5.4,1
433,0.0012365883530776492,0.019846088966097644,0.9994506772804406,0,5.4,1
434,0.001168281992107315,0.019663143709091824,0.9995117707616268,0,5.4,1
435,0.0011765426483131506,0.01974002043718663,0.999593780102043,0,5.4,1
436,0.0010007789724558842,0.01958625242349203,0.9995887945205219,0,5.4,1
437,0.00116741909599911,0.01960154690217078,0.9995846372610347,0,5.4,1
438,0.0011954579424202133,0.019690471057456603,0.9995117518368704,0,5.4,1
439,0.0011094638489509878,0.01984438610195159,0.9994800717945138,0,5.4,1
440,0.001093601263640056,0.01983694612508949,0.9994183494291123,0,5.4,1
441,0.0012634167429589423,0.01950020155575335,0.9994031237346446,0,5.4,1
442,0.0011489983931240388,0.01967075473663754,0.9993675430088266,0,5.4,1
443,0.0012180541016636674,0.019848946968264548,0.999430280760201,0,5.4,1
444,0.001107411968622832,0.019532261912927583,0.9994045965902121,0,5.4,1
445,0.001145685832863861,0.019640642173630797,0.9994801096440269,0,5.4,1
446,0.00099619918138644,0.01959085113931796,0.9994755298529574,0,5.4,1
447,0.0010612927010057696,0.019827687551916683,0.9993676587409912,0,5.4,1
448,0.0011411060417944182,0.019663219408117764,0.9995163127031833,0,5.4,1
449,0.0010012855736294902,0.019721503290841012,0.9993445701741414,0,5.4,1
450,0.0011864876078461783,0.019794595067638754,0.9993940398515316,0,5.4,1
451,0.0012505340789191945,0.019744630435078923,0.9993631258978753,0,5.4,1
452,0.0011502466991768197,0.019740224242256472,0.9993940398515316,0,5.4,1
453,0.001125948403662562,0.01962453902554993,0.9993815466007503,0,5.4,1
454,0.0011320410834379565,0.020075343830098246,0.9993939830772622,0,5.4,1
455,0.0011581991002145198,0.020021461772945965,0.9993261108938782,0,5.4,1
456,0.0011999431097072294,0.019703983333587114,0.9994121319187317,0,5.4,1
457,0.0011139490162380052,0.01969493729998714,0.9993079889837931,0,5.4,1
458,0.001055111948325194,0.019894196061020913,0.9994302996849574,0,5.4,1
459,0.0011905269515429166,0.019587659042411564,0.9994784144225708,0,5.4,1
460,0.0012633221191765155,0.01993043696969027,0.9995163316279397,0,5.4,1
461,0.0008950627351655989,0.019753831142169408,0.9994876151296613,0,5.4,1
462,0.001073241865038116,0.019894196061020913,0.9995117707616268,0,5.4,1
463,0.0010473855525524425,0.019887675390598845,0.9994876729957437,0,5.4,1
464,0.0011773091009508062,0.019817191226882205,0.9994257009691316,0,5.4,1
465,0.0012273876459871682,0.01985999611455097,0.9993214623185975,0,5.4,1
466,0.0010958380242815687,0.01977192320936936,0.9994257198938881,0,5.4,1
467,0.0011411438913073875,0.019826294034751637,0.99944848637594,0,5.4,1
468,0.001167457673387331,0.01981839040135565,0.999436885864152,0,5.4,1
469,0.0011320789329509271,0.01977196105888233,0.9994981260122009,0,5.4,1
470,0.0011442533743729732,0.019823038976636165,0.9993584194565126,0,5.4,1
471,0.0010595592660992395,0.019848909118751576,0.9994846326608268,0,5.4,1
472,0.001135149110753043,0.019979952503221196,0.9993630294544048,0,5.4,1
473,0.001249809843046007,0.019930455894446756,0.999439251094775,0,5.4,1
474,0.001281527734915379,0.019980341552542018,0.9994800717945138,0,5.4,1
475,0.001005856994133566,0.01994309180877694,0.999487711573132,0,5.4,1
476,0.0013674839788716325,0.01997118197040313,0.9993079511342798,0,5.4,1
477,0.001107411968622832,0.01986921611033556,0.9994876922844378,0,5.4,1
478,0.0011320978577074126,0.01991684899453382,0.9994167306345575,0,5.4,1
479,0.0013811098035410516,0.019839844160395116,0.9994982017112267,0,5.4,1
480,0.0010288684062068217,0.02000768964535141,0.9993584001678184,0,5.4,1
481,0.0011638157495767842,0.02016601233841934,0.9992400869575236,0,5.4,1
482,0.0010612734123116592,0.019832258972420757,0.9994184265838889,0,5.4,1
483,0.0012316799263330852,0.019889654119464438,0.9994121508434881,0,5.4,1
484,0.0010520341278329585,0.019804637562455207,0.9993860987325605,0,5.4,1
485,0.0011049408321510009,0.019857974077108036,0.999348696134993,0,5.4,1
486,0.0011275369913944537,0.019717552383987078,0.9993940966258011,0,5.4,1
487,0.001181229800981886,0.019929203949017725,0.9993537901699261,0,5.4,1
488,0.0012906116180283244,0.020174982672993374,0.9994528390699315,0,5.4,1
489,0.0013243326225841393,0.01974914398950067,0.9994738237133729,0,5.4,1
490,0.0011139868657509759,0.02004820572929832,0.9995072477448268,0,5.4,1
491,0.0010658641215098436,0.019823000399247944,0.9994184265838889,0,5.4,1
492,0.0011185477320639348,0.019885150027420934,0.9994438498106009,0,5.4,1
493,0.0012770425676283613,0.02015231081472398,0.9994257388186446,0,5.4,1
494,0.0010290227157597027,0.019993840362980412,0.9993768787367757,0,5.4,1
495,0.001349448685941137,0.019925932877646768,0.9994529147689576,0,5.4,1
496,0.0010797134038808393,0.019920022530621355,0.9993861565986426,0,5.4,1
497,0.0012588369518894982,0.01981721015163869,0.9994393457185574,0,5.4,1
498,0.0012814520358894362,0.019912325977733833,0.999439251094775,0,5.4,1
499,0.001296672635230369,0.02001226106585548,0.9994092451654923,0,5.4,1
500,0.001204485051263703,0.020097996763611157,0.9992944199333932,0,5.4,1
501,0.0011951369494352117,0.019966122509544312,0.9993814115798917,0,5.4,1
